Time,header.seq,header.stamp.secs,header.stamp.nsecs,header.frame_id,orientation.x,orientation.y,orientation.z,orientation.w,orientation_covariance_0,orientation_covariance_1,orientation_covariance_2,orientation_covariance_3,orientation_covariance_4,orientation_covariance_5,orientation_covariance_6,orientation_covariance_7,orientation_covariance_8,angular_velocity.x,angular_velocity.y,angular_velocity.z,angular_velocity_covariance_0,angular_velocity_covariance_1,angular_velocity_covariance_2,angular_velocity_covariance_3,angular_velocity_covariance_4,angular_velocity_covariance_5,angular_velocity_covariance_6,angular_velocity_covariance_7,angular_velocity_covariance_8,linear_acceleration.x,linear_acceleration.y,linear_acceleration.z,linear_acceleration_covariance_0,linear_acceleration_covariance_1,linear_acceleration_covariance_2,linear_acceleration_covariance_3,linear_acceleration_covariance_4,linear_acceleration_covariance_5,linear_acceleration_covariance_6,linear_acceleration_covariance_7,linear_acceleration_covariance_8
1676104290.057551,7298,1676104289,657575360,base_link,0.03330128263093726,0.07299415459488677,0.01662360213651539,-0.9966376337520754,1.0,0.0,0.0,0.0,1.0,0.0,0.0,0.0,1.0,-0.0006074706325307488,0.0005121941212564707,-0.00015545915812253957,1.2184696791468346e-07,0.0,0.0,0.0,1.2184696791468346e-07,0.0,0.0,0.0,1.2184696791468346e-07,1.4466437101364136,-0.6396429538726794,9.683826446533203,8.999999999999999e-08,0.0,0.0,0.0,8.999999999999999e-08,0.0,0.0,0.0,8.999999999999999e-08
1676104290.0602393,7299,1676104289,677575360,base_link,0.03330261289084339,0.07299701794640748,0.016624571514031145,-0.9966374230178328,1.0,0.0,0.0,0.0,1.0,0.0,0.0,0.0,1.0,0.00150301621761173,-0.0005324452067725359,0.0005041890544816853,1.2184696791468346e-07,0.0,0.0,0.0,1.2184696791468346e-07,0.0,0.0,0.0,1.2184696791468346e-07,1.445481538772583,-0.632135748863219,9.675909996032715,8.999999999999999e-08,0.0,0.0,0.0,8.999999999999999e-08,0.0,0.0,0.0,8.999999999999999e-08
1676104290.0604885,7300,1676104289,697575360,base_link,0.033299916809627704,0.07299389776252865,0.016626510269062655,-0.9966376758989238,1.0,0.0,0.0,0.0,1.0,0.0,0.0,0.0,1.0,0.0016689366893842816,0.00039016641676425923,-0.0008198822615668178,1.2184696791468346e-07,0.0,0.0,0.0,1.2184696791468346e-07,0.0,0.0,0.0,1.2184696791468346e-07,1.4501290321350098,-0.6229366064071643,9.688586235046387,8.999999999999999e-08,0.0,0.0,0.0,8.999999999999999e-08,0.0,0.0,0.0,8.999999999999999e-08
1676104290.061284,7301,1676104289,717578688,base_link,0.03328929975507001,0.07298834096397029,0.016622969933787778,-0.996638518835894,1.0,0.0,0.0,0.0,1.0,0.0,0.0,0.0,1.0,0.00027012673672288656,0.0018290739972144367,0.0012319113593548534,1.2184696791468346e-07,0.0,0.0,0.0,1.2184696791468346e-07,0.0,0.0,0.0,1.2184696791468346e-07,1.4699103832244873,-0.6273120641708362,9.660943984985352,8.999999999999999e-08,0.0,0.0,0.0,8.999999999999999e-08,0.0,0.0,0.0,8.999999999999999e-08
1676104290.0625856,7302,1676104289,737578688,base_link,0.03327356976095234,0.07298759154032021,0.01662533015730434,-0.9966390245980762,1.0,0.0,0.0,0.0,1.0,0.0,0.0,0.0,1.0,-0.0012878472916781902,0.0004919319180771708,0.0002693277492653578,1.2184696791468346e-07,0.0,0.0,0.0,1.2184696791468346e-07,0.0,0.0,0.0,1.2184696791468346e-07,1.4322564601898193,-0.6472190618515002,9.672877311706543,8.999999999999999e-08,0.0,0.0,0.0,8.999999999999999e-08,0.0,0.0,0.0,8.999999999999999e-08
1676104290.0676334,7303,1676104289,757578688,base_link,0.033279403148204045,0.07299320102243921,0.016623728577060976,-0.996638434542197,1.0,0.0,0.0,0.0,1.0,0.0,0.0,0.0,1.0,-0.0016026496887207031,-0.0006824630545452237,0.00042564954492263507,1.2184696791468346e-07,0.0,0.0,0.0,1.2184696791468346e-07,0.0,0.0,0.0,1.2184696791468346e-07,1.4502078294754028,-0.6479470133781421,9.67564582824707,8.999999999999999e-08,0.0,0.0,0.0,8.999999999999999e-08,0.0,0.0,0.0,8.999999999999999e-08
1676104290.0676894,7304,1676104289,777578688,base_link,0.0332850995581981,0.07299158232003859,0.0166234335491214,-0.9966383923953486,1.0,0.0,0.0,0.0,1.0,0.0,0.0,0.0,1.0,0.002073095180094242,-0.0007864806684665383,-0.0005555732641369103,1.2184696791468346e-07,0.0,0.0,0.0,1.2184696791468346e-07,0.0,0.0,0.0,1.2184696791468346e-07,1.4286754131317139,-0.6575601696968066,9.679792404174805,8.999999999999999e-08,0.0,0.0,0.0,8.999999999999999e-08,0.0,0.0,0.0,8.999999999999999e-08
1676104290.0681925,7305,1676104289,797578688,base_link,0.033284439696601095,0.07299434952406113,0.016623222814878845,-0.996638181661106,1.0,0.0,0.0,0.0,1.0,0.0,0.0,0.0,1.0,0.002429263200610876,0.0009023197926580906,4.257951513864089e-05,1.2184696791468346e-07,0.0,0.0,0.0,1.2184696791468346e-07,0.0,0.0,0.0,1.2184696791468346e-07,1.430718183517456,-0.6310748457908618,9.680948257446289,8.999999999999999e-08,0.0,0.0,0.0,8.999999999999999e-08,0.0,0.0,0.0,8.999999999999999e-08
1676104290.068213,7306,1676104289,817582528,base_link,0.03328224410921148,0.07299361590547923,0.016619556039058382,-0.9966383923953486,1.0,0.0,0.0,0.0,1.0,0.0,0.0,0.0,1.0,0.003153489902615547,0.001679191365838051,0.0017957568634301422,1.2184696791468346e-07,0.0,0.0,0.0,1.2184696791468346e-07,0.0,0.0,0.0,1.2184696791468346e-07,1.426215410232544,-0.6035282611846912,9.662585258483887,8.999999999999999e-08,0.0,0.0,0.0,8.999999999999999e-08,0.0,0.0,0.0,8.999999999999999e-08
1676104290.0682423,7307,1676104289,837582528,base_link,0.033272227647245065,0.07299834293795754,0.01661829163360305,-0.9966383923953486,1.0,0.0,0.0,0.0,1.0,0.0,0.0,0.0,1.0,-0.0018426456954330206,-0.0008370576542802155,0.00014693770208396028,1.2184696791468346e-07,0.0,0.0,0.0,1.2184696791468346e-07,0.0,0.0,0.0,1.2184696791468346e-07,1.426814317703247,-0.6371167302131641,9.675677299499512,8.999999999999999e-08,0.0,0.0,0.0,8.999999999999999e-08,0.0,0.0,0.0,8.999999999999999e-08
1676104290.0700297,7308,1676104289,857582528,base_link,0.03328083350687538,0.07300026325374281,0.016620356829180095,-0.996637928780015,1.0,0.0,0.0,0.0,1.0,0.0,0.0,0.0,1.0,0.0009941133903339505,0.0014714624267071488,0.0011459997622296212,1.2184696791468346e-07,0.0,0.0,0.0,1.2184696791468346e-07,0.0,0.0,0.0,1.2184696791468346e-07,1.4478563070297241,-0.6166175603866565,9.669418334960938,8.999999999999999e-08,0.0,0.0,0.0,8.999999999999999e-08,0.0,0.0,0.0,8.999999999999999e-08
1676104290.070648,7309,1676104289,877582528,base_link,0.033281689614735765,0.07300061886777712,0.016619471745361363,-0.9966378866331664,1.0,0.0,0.0,0.0,1.0,0.0,0.0,0.0,1.0,0.002110350877046585,-0.0005544523010030387,0.0018984489142894745,1.2184696791468346e-07,0.0,0.0,0.0,1.2184696791468346e-07,0.0,0.0,0.0,1.2184696791468346e-07,1.447216510772705,-0.6365104913711536,9.675392150878906,8.999999999999999e-08,0.0,0.0,0.0,8.999999999999999e-08,0.0,0.0,0.0,8.999999999999999e-08
1676104290.070665,7310,1676104289,897582528,base_link,0.03327343410078369,0.07300181478460362,0.01661850236784561,-0.996638097367409,1.0,0.0,0.0,0.0,1.0,0.0,0.0,0.0,1.0,0.00025388842914253473,0.001324697397649288,-0.001505750115029514,1.2184696791468346e-07,0.0,0.0,0.0,1.2184696791468346e-07,0.0,0.0,0.0,1.2184696791468346e-07,1.447968602180481,-0.6266157031059253,9.66699504852295,8.999999999999999e-08,0.0,0.0,0.0,8.999999999999999e-08,0.0,0.0,0.0,8.999999999999999e-08
1676104290.070689,7311,1676104289,917586880,base_link,0.03327458391949463,0.07300350987816717,0.016627226765487342,-0.9966378023394694,1.0,0.0,0.0,0.0,1.0,0.0,0.0,0.0,1.0,-0.0008253981359302998,-0.0008250907412730157,-0.0002533821389079093,1.2184696791468346e-07,0.0,0.0,0.0,1.2184696791468346e-07,0.0,0.0,0.0,1.2184696791468346e-07,1.4594149589538574,-0.6336060166358936,9.691910743713379,8.999999999999999e-08,0.0,0.0,0.0,8.999999999999999e-08,0.0,0.0,0.0,8.999999999999999e-08
1676104290.0711086,7312,1676104289,937586880,base_link,0.033278385038394705,0.07300148946361668,0.016629460548458427,-0.9966377601926208,1.0,0.0,0.0,0.0,1.0,0.0,0.0,0.0,1.0,0.0010083022061735392,0.0012044276809319856,0.0011919083772227166,1.2184696791468346e-07,0.0,0.0,0.0,1.2184696791468346e-07,0.0,0.0,0.0,1.2184696791468346e-07,1.4417098760604858,-0.6450582742691028,9.676148414611816,8.999999999999999e-08,0.0,0.0,0.0,8.999999999999999e-08,0.0,0.0,0.0,8.999999999999999e-08
1676104290.0713592,7313,1676104289,957586880,base_link,0.033268076182666736,0.07300245225568736,0.01662646812221414,-0.9966381395142575,1.0,0.0,0.0,0.0,1.0,0.0,0.0,0.0,1.0,0.002507865196093917,0.0007507945410907269,0.0004096513439435511,1.2184696791468346e-07,0.0,0.0,0.0,1.2184696791468346e-07,0.0,0.0,0.0,1.2184696791468346e-07,1.4287246465682983,-0.6304151415824878,9.694613456726074,8.999999999999999e-08,0.0,0.0,0.0,8.999999999999999e-08,0.0,0.0,0.0,8.999999999999999e-08
1676104290.074016,7314,1676104289,977586880,base_link,0.033265211514057015,0.07300355729337174,0.016631820771975045,-0.9966380130737119,1.0,0.0,0.0,0.0,1.0,0.0,0.0,0.0,1.0,-0.0002389182336628437,-0.0008061107946559787,0.00016662789857946347,1.2184696791468346e-07,0.0,0.0,0.0,1.2184696791468346e-07,0.0,0.0,0.0,1.2184696791468346e-07,1.4457128047943115,-0.6351156234741199,9.693326950073242,8.999999999999999e-08,0.0,0.0,0.0,8.999999999999999e-08,0.0,0.0,0.0,8.999999999999999e-08
1676104290.0797305,7315,1676104289,997586880,base_link,0.033263550664807885,0.07301027576444219,0.016627058178093297,-0.9966376337520754,1.0,0.0,0.0,0.0,1.0,0.0,0.0,0.0,1.0,-0.0023574824444949627,0.0005699804751202464,-0.00017659252625890084,1.2184696791468346e-07,0.0,0.0,0.0,1.2184696791468346e-07,0.0,0.0,0.0,1.2184696791468346e-07,1.464707374572754,-0.6182808279991138,9.680190086364746,8.999999999999999e-08,0.0,0.0,0.0,8.999999999999999e-08,0.0,0.0,0.0,8.999999999999999e-08
1676104290.0833616,7316,1676104290,17591488,base_link,0.033265619811651964,0.07301365409776814,0.01663101998185334,-0.9966372965772873,1.0,0.0,0.0,0.0,1.0,0.0,0.0,0.0,1.0,-0.0010028164833784103,-0.0008016946958377957,0.0004288060299586506,1.2184696791468346e-07,0.0,0.0,0.0,1.2184696791468346e-07,0.0,0.0,0.0,1.2184696791468346e-07,1.4458134174346924,-0.6425705552101123,9.667089462280273,8.999999999999999e-08,0.0,0.0,0.0,8.999999999999999e-08,0.0,0.0,0.0,8.999999999999999e-08
1676104290.083803,7317,1676104290,37591488,base_link,0.03327334322164159,0.07301228432519154,0.016627732527669477,-0.9966372122835903,1.0,0.0,0.0,0.0,1.0,0.0,0.0,0.0,1.0,0.001420982414856553,-0.00020850036526098853,-0.0003924125339835882,1.2184696791468346e-07,0.0,0.0,0.0,1.2184696791468346e-07,0.0,0.0,0.0,1.2184696791468346e-07,1.4460585117340088,-0.6139945387840259,9.688626289367676,8.999999999999999e-08,0.0,0.0,0.0,8.999999999999999e-08,0.0,0.0,0.0,8.999999999999999e-08
1676104290.0844357,7318,1676104290,57591488,base_link,0.03326290265701203,0.07300730967997823,0.016630935688156316,-0.9966378866331664,1.0,0.0,0.0,0.0,1.0,0.0,0.0,0.0,1.0,-0.0005250935209915042,0.0007697930559515954,0.0007597723742946981,1.2184696791468346e-07,0.0,0.0,0.0,1.2184696791468346e-07,0.0,0.0,0.0,1.2184696791468346e-07,1.4410860538482666,-0.6363871097564685,9.686579704284668,8.999999999999999e-08,0.0,0.0,0.0,8.999999999999999e-08,0.0,0.0,0.0,8.999999999999999e-08
1676104290.085984,7319,1676104290,77591488,base_link,0.03326047394486659,0.07300574497822726,0.016628196143003093,-0.9966380973674089,1.0,0.0,0.0,0.0,1.0,0.0,0.0,0.0,1.0,-0.0024146423675119877,-0.00016691465862095367,-0.0008372508455067873,1.2184696791468346e-07,0.0,0.0,0.0,1.2184696791468346e-07,0.0,0.0,0.0,1.2184696791468346e-07,1.4485617876052856,-0.6217869520187366,9.686544418334961,8.999999999999999e-08,0.0,0.0,0.0,8.999999999999999e-08,0.0,0.0,0.0,8.999999999999999e-08
1676104290.1027482,7320,1676104290,97591488,base_link,0.033260239503021746,0.07300850823098276,0.016642694658890844,-0.9966376758989238,1.0,0.0,0.0,0.0,1.0,0.0,0.0,0.0,1.0,0.000637873075902462,0.0005483238492161036,0.00012581076589412982,1.2184696791468346e-07,0.0,0.0,0.0,1.2184696791468346e-07,0.0,0.0,0.0,1.2184696791468346e-07,1.4489712715148926,-0.6200274825096118,9.663067817687988,8.999999999999999e-08,0.0,0.0,0.0,8.999999999999999e-08,0.0,0.0,0.0,8.999999999999999e-08
1676104290.124142,7321,1676104290,117595584,base_link,0.033251875987770366,0.07300088755393638,0.016645602791438105,-0.9966383923953486,1.0,0.0,0.0,0.0,1.0,0.0,0.0,0.0,1.0,0.0013836314901709557,-0.0004436840536072852,-0.0013486887328326702,1.2184696791468346e-07,0.0,0.0,0.0,1.2184696791468346e-07,0.0,0.0,0.0,1.2184696791468346e-07,1.413794755935669,-0.6348742246627795,9.66553783416748,8.999999999999999e-08,0.0,0.0,0.0,8.999999999999999e-08,0.0,0.0,0.0,8.999999999999999e-08
1676104290.1438015,7322,1676104290,137595584,base_link,0.03324355330227848,0.07299711409390564,0.016648890245621967,-0.9966388981575307,1.0,0.0,0.0,0.0,1.0,0.0,0.0,0.0,1.0,0.0014897189103066921,0.00010780105367302884,-0.0009250223520211875,1.2184696791468346e-07,0.0,0.0,0.0,1.2184696791468346e-07,0.0,0.0,0.0,1.2184696791468346e-07,1.4543942213058472,-0.6343197226524341,9.674883842468262,8.999999999999999e-08,0.0,0.0,0.0,8.999999999999999e-08,0.0,0.0,0.0,8.999999999999999e-08
1676104290.1617036,7323,1676104290,157595584,base_link,0.03323983911125346,0.07299623427844297,0.016649691035743677,-0.9966391088917732,1.0,0.0,0.0,0.0,1.0,0.0,0.0,0.0,1.0,-0.002155967289581895,0.0018383165588602424,-8.723521023057424e-05,1.2184696791468346e-07,0.0,0.0,0.0,1.2184696791468346e-07,0.0,0.0,0.0,1.2184696791468346e-07,1.4360958337783813,-0.6298927068710315,9.680066108703613,8.999999999999999e-08,0.0,0.0,0.0,8.999999999999999e-08,0.0,0.0,0.0,8.999999999999999e-08
1676104290.187148,7324,1676104290,177595584,base_link,0.03324210845562797,0.07298923395032311,0.01665318922417004,-0.9966394882134099,1.0,0.0,0.0,0.0,1.0,0.0,0.0,0.0,1.0,0.00011486373841762543,0.0007782747270539404,0.0011654379777610302,1.2184696791468346e-07,0.0,0.0,0.0,1.2184696791468346e-07,0.0,0.0,0.0,1.2184696791468346e-07,1.4321234226226807,-0.6195582747459399,9.690958023071289,8.999999999999999e-08,0.0,0.0,0.0,8.999999999999999e-08,0.0,0.0,0.0,8.999999999999999e-08
1676104290.2025917,7325,1676104290,197595584,base_link,0.033247346518644465,0.07298925370665836,0.016648173749197276,-0.9966393617728644,1.0,0.0,0.0,0.0,1.0,0.0,0.0,0.0,1.0,0.002581306966021657,0.0003084547352045777,0.0022372989915311337,1.2184696791468346e-07,0.0,0.0,0.0,1.2184696791468346e-07,0.0,0.0,0.0,1.2184696791468346e-07,1.4490890502929688,-0.6310294866561877,9.682422637939453,8.999999999999999e-08,0.0,0.0,0.0,8.999999999999999e-08,0.0,0.0,0.0,8.999999999999999e-08
1676104290.2228234,7326,1676104290,217599936,base_link,0.033239305690201996,0.07298482960465373,0.016641388106586993,-0.996640078269289,1.0,0.0,0.0,0.0,1.0,0.0,0.0,0.0,1.0,0.0007040246855467558,0.0003444215981289744,-0.00022872084809932863,1.2184696791468346e-07,0.0,0.0,0.0,1.2184696791468346e-07,0.0,0.0,0.0,1.2184696791468346e-07,1.4469040632247925,-0.6314982175827014,9.674389839172363,8.999999999999999e-08,0.0,0.0,0.0,8.999999999999999e-08,0.0,0.0,0.0,8.999999999999999e-08
1676104290.2465122,7327,1676104290,242599936,base_link,0.033235526961815184,0.07299671106466675,0.016644928441861925,-0.9966393196260158,1.0,0.0,0.0,0.0,1.0,0.0,0.0,0.0,1.0,0.0016985083930194378,0.0002461477415636181,-0.0009744545677676797,1.2184696791468346e-07,0.0,0.0,0.0,1.2184696791468346e-07,0.0,0.0,0.0,1.2184696791468346e-07,1.450048565864563,-0.6235471963882434,9.682599067687988,8.999999999999999e-08,0.0,0.0,0.0,8.999999999999999e-08,0.0,0.0,0.0,8.999999999999999e-08
1676104290.2642295,7328,1676104290,256599936,base_link,0.033234676122310874,0.07300553819525175,0.01664606640677173,-0.9966386874232881,1.0,0.0,0.0,0.0,1.0,0.0,0.0,0.0,1.0,-0.0004742788150906563,-0.00011254067067056905,-0.0008684563217684627,1.2184696791468346e-07,0.0,0.0,0.0,1.2184696791468346e-07,0.0,0.0,0.0,1.2184696791468346e-07,1.4439829587936401,-0.5939177274703967,9.695075988769531,8.999999999999999e-08,0.0,0.0,0.0,8.999999999999999e-08,0.0,0.0,0.0,8.999999999999999e-08
1676104290.2839146,7329,1676104290,276599936,base_link,0.033239043589487816,0.07301180227061169,0.01664728866537855,-0.9966380552205605,1.0,0.0,0.0,0.0,1.0,0.0,0.0,0.0,1.0,0.0016593777108937502,0.0007371467072516681,0.0006719514494761824,1.2184696791468346e-07,0.0,0.0,0.0,1.2184696791468346e-07,0.0,0.0,0.0,1.2184696791468346e-07,1.4303536415100098,-0.6345615386962878,9.680153846740723,8.999999999999999e-08,0.0,0.0,0.0,8.999999999999999e-08,0.0,0.0,0.0,8.999999999999999e-08
1676104290.3040776,7330,1676104290,296599936,base_link,0.03324007882145437,0.07300687899187001,0.01665175623132072,-0.9966383081016515,1.0,0.0,0.0,0.0,1.0,0.0,0.0,0.0,1.0,0.0021167949307709932,-0.0008410307345911862,-0.0011186788324266672,1.2184696791468346e-07,0.0,0.0,0.0,1.2184696791468346e-07,0.0,0.0,0.0,1.2184696791468346e-07,1.448142170906067,-0.6186691522598254,9.666055679321289,8.999999999999999e-08,0.0,0.0,0.0,8.999999999999999e-08,0.0,0.0,0.0,8.999999999999999e-08
1676104290.3244014,7331,1676104290,317604032,base_link,0.03322766789165692,0.07301669789048404,0.016652852049381956,-0.9966379709268635,1.0,0.0,0.0,0.0,1.0,0.0,0.0,0.0,1.0,-0.0021329629234969616,-0.0009368954924866558,-0.0009908454958349464,1.2184696791468346e-07,0.0,0.0,0.0,1.2184696791468346e-07,0.0,0.0,0.0,1.2184696791468346e-07,1.453586220741272,-0.632408559322356,9.685094833374023,8.999999999999999e-08,0.0,0.0,0.0,8.999999999999999e-08,0.0,0.0,0.0,8.999999999999999e-08
1676104290.3427458,7332,1676104290,336604032,base_link,0.033232134140510065,0.0730253077013814,0.016651166175441514,-0.9966372122835903,1.0,0.0,0.0,0.0,1.0,0.0,0.0,0.0,1.0,-0.0025523260701447725,-0.0010480424389243126,0.00029695770354010176,1.2184696791468346e-07,0.0,0.0,0.0,1.2184696791468346e-07,0.0,0.0,0.0,1.2184696791468346e-07,1.4314830303192139,-0.6197556257247913,9.659224510192871,8.999999999999999e-08,0.0,0.0,0.0,8.999999999999999e-08,0.0,0.0,0.0,8.999999999999999e-08
1676104290.3634589,7333,1676104290,356604032,base_link,0.03323374230619855,0.07302800905095315,0.016653526398958136,-0.9966369594024992,1.0,0.0,0.0,0.0,1.0,0.0,0.0,0.0,1.0,0.001972275087609887,0.0011294815922155976,-1.4637131243944307e-05,1.2184696791468346e-07,0.0,0.0,0.0,1.2184696791468346e-07,0.0,0.0,0.0,1.2184696791468346e-07,1.443485975265503,-0.6315227746963489,9.670492172241211,8.999999999999999e-08,0.0,0.0,0.0,8.999999999999999e-08,0.0,0.0,0.0,8.999999999999999e-08
1676104290.3838155,7334,1676104290,376604032,base_link,0.03322739262005259,0.07303226193138569,0.016651334762835562,-0.9966368751088022,1.0,0.0,0.0,0.0,1.0,0.0,0.0,0.0,1.0,0.0023977376986294985,7.12506007403136e-05,0.0005374393658712506,1.2184696791468346e-07,0.0,0.0,0.0,1.2184696791468346e-07,0.0,0.0,0.0,1.2184696791468346e-07,1.4343549013137817,-0.6247630715370166,9.658035278320312,8.999999999999999e-08,0.0,0.0,0.0,8.999999999999999e-08,0.0,0.0,0.0,8.999999999999999e-08
1676104290.4050696,7335,1676104290,396604032,base_link,0.03322391155378339,0.0730277245597257,0.016655928769323265,-0.9966372544304387,1.0,0.0,0.0,0.0,1.0,0.0,0.0,0.0,1.0,-0.00027467147447168827,-0.0006638318300247193,-0.0006919213337823748,1.2184696791468346e-07,0.0,0.0,0.0,1.2184696791468346e-07,0.0,0.0,0.0,1.2184696791468346e-07,1.439862608909607,-0.633458614349364,9.658758163452148,8.999999999999999e-08,0.0,0.0,0.0,8.999999999999999e-08,0.0,0.0,0.0,8.999999999999999e-08
1676104290.4239063,7336,1676104290,416608640,base_link,0.03322555001251925,0.07303324052852456,0.016654664363867935,-0.9966368329619536,1.0,0.0,0.0,0.0,1.0,0.0,0.0,0.0,1.0,-0.0032177534885704517,-0.00017547170864418165,-0.001267280662432313,1.2184696791468346e-07,0.0,0.0,0.0,1.2184696791468346e-07,0.0,0.0,0.0,1.2184696791468346e-07,1.4401354789733887,-0.6255619525909412,9.68925666809082,8.999999999999999e-08,0.0,0.0,0.0,8.999999999999999e-08,0.0,0.0,0.0,8.999999999999999e-08
1676104290.442518,7337,1676104290,436608640,base_link,0.03323460631659303,0.07303301398921382,0.016658921195567552,-0.996636453640317,1.0,0.0,0.0,0.0,1.0,0.0,0.0,0.0,1.0,0.0005959465634077787,-0.0005813542520627379,0.00016003186465241023,1.2184696791468346e-07,0.0,0.0,0.0,1.2184696791468346e-07,0.0,0.0,0.0,1.2184696791468346e-07,1.4368137121200562,-0.6309546828269946,9.679389953613281,8.999999999999999e-08,0.0,0.0,0.0,8.999999999999999e-08,0.0,0.0,0.0,8.999999999999999e-08
1676104290.462763,7338,1676104290,456608640,base_link,0.03324063990137517,0.07303495669551235,0.016653442105261117,-0.996636200759226,1.0,0.0,0.0,0.0,1.0,0.0,0.0,0.0,1.0,0.0009377631358802319,-0.0014446256682276724,0.0009041855810210111,1.2184696791468346e-07,0.0,0.0,0.0,1.2184696791468346e-07,0.0,0.0,0.0,1.2184696791468346e-07,1.4467307329177856,-0.6531587839126575,9.674165725708008,8.999999999999999e-08,0.0,0.0,0.0,8.999999999999999e-08,0.0,0.0,0.0,8.999999999999999e-08
1676104290.4853528,7339,1676104290,482608640,base_link,0.03323765537766499,0.0730385734219502,0.016653821426897718,-0.9966359900249834,1.0,0.0,0.0,0.0,1.0,0.0,0.0,0.0,1.0,0.0019925313536077738,-0.0004612237098626793,-0.0002647066721692681,1.2184696791468346e-07,0.0,0.0,0.0,1.2184696791468346e-07,0.0,0.0,0.0,1.2184696791468346e-07,1.4369240999221802,-0.6473336815834033,9.696255683898926,8.999999999999999e-08,0.0,0.0,0.0,8.999999999999999e-08,0.0,0.0,0.0,8.999999999999999e-08
1676104290.506175,7340,1676104290,501608640,base_link,0.03323107651803024,0.07303656486120086,0.016661829328114816,-0.9966362429060746,1.0,0.0,0.0,0.0,1.0,0.0,0.0,0.0,1.0,0.0010947163682430983,0.001143120811320841,-0.0010286988690495493,1.2184696791468346e-07,0.0,0.0,0.0,1.2184696791468346e-07,0.0,0.0,0.0,1.2184696791468346e-07,1.456974744796753,-0.6330057978630054,9.657243728637695,8.999999999999999e-08,0.0,0.0,0.0,8.999999999999999e-08,0.0,0.0,0.0,8.999999999999999e-08
1676104290.5229297,7341,1676104290,516612992,base_link,0.03324178840299709,0.07304400773123007,0.016660859950599065,-0.9966353578222558,1.0,0.0,0.0,0.0,1.0,0.0,0.0,0.0,1.0,0.00043180910870432854,-6.305752322077737e-06,0.00011958743561990559,1.2184696791468346e-07,0.0,0.0,0.0,1.2184696791468346e-07,0.0,0.0,0.0,1.2184696791468346e-07,1.418282389640808,-0.6399028897285449,9.685617446899414,8.999999999999999e-08,0.0,0.0,0.0,8.999999999999999e-08,0.0,0.0,0.0,8.999999999999999e-08
1676104290.5451672,7342,1676104290,541612992,base_link,0.0332453945927228,0.07305193924128421,0.01665976413253778,-0.9966346834726796,1.0,0.0,0.0,0.0,1.0,0.0,0.0,0.0,1.0,-0.001895622001029551,0.0003812029026448727,0.00039892960921861226,1.2184696791468346e-07,0.0,0.0,0.0,1.2184696791468346e-07,0.0,0.0,0.0,1.2184696791468346e-07,1.4454971551895142,-0.6334280371665942,9.700400352478027,8.999999999999999e-08,0.0,0.0,0.0,8.999999999999999e-08,0.0,0.0,0.0,8.999999999999999e-08
1676104290.566092,7343,1676104290,561612992,base_link,0.03323661356025336,0.0730513109898236,0.016656055209868806,-0.9966351049411647,1.0,0.0,0.0,0.0,1.0,0.0,0.0,0.0,1.0,0.0017844210378825665,8.892850019037608e-06,-0.0009362765122205019,1.2184696791468346e-07,0.0,0.0,0.0,1.2184696791468346e-07,0.0,0.0,0.0,1.2184696791468346e-07,1.4371051788330078,-0.6255804896354663,9.695303916931152,8.999999999999999e-08,0.0,0.0,0.0,8.999999999999999e-08,0.0,0.0,0.0,8.999999999999999e-08
1676104290.582623,7344,1676104290,576612992,base_link,0.03323224872725445,0.07305519113406464,0.016652093406108768,-0.9966350206474677,1.0,0.0,0.0,0.0,1.0,0.0,0.0,0.0,1.0,0.0007947708945721388,0.0003328461898490787,0.0005738745676353574,1.2184696791468346e-07,0.0,0.0,0.0,1.2184696791468346e-07,0.0,0.0,0.0,1.2184696791468346e-07,1.4255082607269287,-0.6282571554183948,9.67931079864502,8.999999999999999e-08,0.0,0.0,0.0,8.999999999999999e-08,0.0,0.0,0.0,8.999999999999999e-08
1676104290.609765,7345,1676104290,601612992,base_link,0.033222544415384817,0.07305594977733783,0.016646698609499407,-0.9966353578222558,1.0,0.0,0.0,0.0,1.0,0.0,0.0,0.0,1.0,0.0014809323474764824,-0.00014311267295852304,2.9313523555174487e-05,1.2184696791468346e-07,0.0,0.0,0.0,1.2184696791468346e-07,0.0,0.0,0.0,1.2184696791468346e-07,1.4410203695297241,-0.6150809526443469,9.684005737304688,8.999999999999999e-08,0.0,0.0,0.0,8.999999999999999e-08,0.0,0.0,0.0,8.999999999999999e-08
1676104290.6266801,7346,1676104290,621617600,base_link,0.033229314252926884,0.07305137157591833,0.016650829000653435,-0.9966354421159528,1.0,0.0,0.0,0.0,1.0,0.0,0.0,0.0,1.0,-0.0017200972652062774,-0.00044318340951576834,-0.0005909204483032225,1.2184696791468346e-07,0.0,0.0,0.0,1.2184696791468346e-07,0.0,0.0,0.0,1.2184696791468346e-07,1.4535967111587524,-0.6414946913719165,9.689729690551758,8.999999999999999e-08,0.0,0.0,0.0,8.999999999999999e-08,0.0,0.0,0.0,8.999999999999999e-08
1676104290.6425478,7347,1676104290,636617600,base_link,0.03322541962070667,0.07304997677865042,0.016652430580896854,-0.9966356107033468,1.0,0.0,0.0,0.0,1.0,0.0,0.0,0.0,1.0,-0.001991896890103817,-0.001059875008650124,0.00021217422909103348,1.2184696791468346e-07,0.0,0.0,0.0,1.2184696791468346e-07,0.0,0.0,0.0,1.2184696791468346e-07,1.436639666557312,-0.6348797082900989,9.68083381652832,8.999999999999999e-08,0.0,0.0,0.0,8.999999999999999e-08,0.0,0.0,0.0,8.999999999999999e-08
1676104290.6633208,7348,1676104290,656617600,base_link,0.03323033367982523,0.07305629485466002,0.01665542300714114,-0.9966348942069221,1.0,0.0,0.0,0.0,1.0,0.0,0.0,0.0,1.0,-0.002149751177057624,-0.0006272101891227068,-0.0005687124212272464,1.2184696791468346e-07,0.0,0.0,0.0,1.2184696791468346e-07,0.0,0.0,0.0,1.2184696791468346e-07,1.431267499923706,-0.6191248893737781,9.6649169921875,8.999999999999999e-08,0.0,0.0,0.0,8.999999999999999e-08,0.0,0.0,0.0,8.999999999999999e-08
1676104290.6856596,7349,1676104290,681617600,base_link,0.03323304424902009,0.073055881288709,0.016648131602348782,-0.9966350206474677,1.0,0.0,0.0,0.0,1.0,0.0,0.0,0.0,1.0,0.0007854374125599861,-0.0011599165154621005,0.000611386843957007,1.2184696791468346e-07,0.0,0.0,0.0,1.2184696791468346e-07,0.0,0.0,0.0,1.2184696791468346e-07,1.4462636709213257,-0.6247741580009448,9.65847110748291,8.999999999999999e-08,0.0,0.0,0.0,8.999999999999999e-08,0.0,0.0,0.0,8.999999999999999e-08
1676104290.7020664,7350,1676104290,696617600,base_link,0.033238801245108876,0.0730530429618796,0.016651250469138547,-0.9966349363537707,1.0,0.0,0.0,0.0,1.0,0.0,0.0,0.0,1.0,0.0018176191952079535,0.0009190192213281989,0.0002586782502476125,1.2184696791468346e-07,0.0,0.0,0.0,1.2184696791468346e-07,0.0,0.0,0.0,1.2184696791468346e-07,1.4379595518112183,-0.6288594603538501,9.681916236877441,8.999999999999999e-08,0.0,0.0,0.0,8.999999999999999e-08,0.0,0.0,0.0,8.999999999999999e-08
1676104290.722822,7351,1676104290,716622208,base_link,0.03323161257325974,0.07304774562985739,0.01665546515398965,-0.9966355264096498,1.0,0.0,0.0,0.0,1.0,0.0,0.0,0.0,1.0,-0.0003193881129845977,-0.0020172016229480505,0.0010123832616955044,1.2184696791468346e-07,0.0,0.0,0.0,1.2184696791468346e-07,0.0,0.0,0.0,1.2184696791468346e-07,1.4419000148773193,-0.6255371570587146,9.678322792053223,8.999999999999999e-08,0.0,0.0,0.0,8.999999999999999e-08,0.0,0.0,0.0,8.999999999999999e-08
1676104290.7459755,7352,1676104290,741622208,base_link,0.033228142043702676,0.07305090005805062,0.016651208322290032,-0.9966354842628014,1.0,0.0,0.0,0.0,1.0,0.0,0.0,0.0,1.0,0.002796037821099162,-0.00013514870079234242,-9.66464285738766e-05,1.2184696791468346e-07,0.0,0.0,0.0,1.2184696791468346e-07,0.0,0.0,0.0,1.2184696791468346e-07,1.4448323249816895,-0.6383177638053882,9.65927791595459,8.999999999999999e-08,0.0,0.0,0.0,8.999999999999999e-08,0.0,0.0,0.0,8.999999999999999e-08
1676104290.7644594,7353,1676104290,756622208,base_link,0.033229760746103294,0.07305263203010662,0.01664939600780406,-0.9966353578222558,1.0,0.0,0.0,0.0,1.0,0.0,0.0,0.0,1.0,-0.0006755577633157372,0.0010025344090536237,0.00032690950320102264,1.2184696791468346e-07,0.0,0.0,0.0,1.2184696791468346e-07,0.0,0.0,0.0,1.2184696791468346e-07,1.443045735359192,-0.6319622993469226,9.681417465209961,8.999999999999999e-08,0.0,0.0,0.0,8.999999999999999e-08,0.0,0.0,0.0,8.999999999999999e-08
1676104290.7855334,7354,1676104290,781622208,base_link,0.03323182067332427,0.07304874925168754,0.016639955113737635,-0.9966356949970439,1.0,0.0,0.0,0.0,1.0,0.0,0.0,0.0,1.0,-0.0025442757178097963,-0.0019897448364645243,0.0004959609359502795,1.2184696791468346e-07,0.0,0.0,0.0,1.2184696791468346e-07,0.0,0.0,0.0,1.2184696791468346e-07,1.4389386177062988,-0.6308290362358081,9.689253807067871,8.999999999999999e-08,0.0,0.0,0.0,8.999999999999999e-08,0.0,0.0,0.0,8.999999999999999e-08
1676104290.8034453,7355,1676104290,796622208,base_link,0.033219532232805306,0.07304720298918281,0.01664265251204234,-0.996636200759226,1.0,0.0,0.0,0.0,1.0,0.0,0.0,0.0,1.0,0.0008275886066257954,-0.001231252565048635,-0.00028302898863330467,1.2184696791468346e-07,0.0,0.0,0.0,1.2184696791468346e-07,0.0,0.0,0.0,1.2184696791468346e-07,1.44798743724823,-0.6135291457176196,9.673982620239258,8.999999999999999e-08,0.0,0.0,0.0,8.999999999999999e-08,0.0,0.0,0.0,8.999999999999999e-08
1676104290.822526,7356,1676104290,816626816,base_link,0.03321833895015684,0.07304963960386235,0.016640039407434654,-0.996636116465529,1.0,0.0,0.0,0.0,1.0,0.0,0.0,0.0,1.0,-0.0009544580243527889,-0.0014160238206386566,0.0008409835863858464,1.2184696791468346e-07,0.0,0.0,0.0,1.2184696791468346e-07,0.0,0.0,0.0,1.2184696791468346e-07,1.4363888502120972,-0.6166440844535815,9.696866035461426,8.999999999999999e-08,0.0,0.0,0.0,8.999999999999999e-08,0.0,0.0,0.0,8.999999999999999e-08
1676104290.8463469,7357,1676104290,841626816,base_link,0.03321640678057042,0.0730427314719736,0.016634307436037204,-0.9966367065214081,1.0,0.0,0.0,0.0,1.0,0.0,0.0,0.0,1.0,0.0010591237805783749,0.0020941668190062046,-0.000816988409496844,1.2184696791468346e-07,0.0,0.0,0.0,1.2184696791468346e-07,0.0,0.0,0.0,1.2184696791468346e-07,1.453879952430725,-0.6296724081039416,9.683327674865723,8.999999999999999e-08,0.0,0.0,0.0,8.999999999999999e-08,0.0,0.0,0.0,8.999999999999999e-08
1676104290.8629818,7358,1676104290,856626816,base_link,0.03322678807619426,0.07304941964999667,0.01663439172973423,-0.9966359478781349,1.0,0.0,0.0,0.0,1.0,0.0,0.0,0.0,1.0,0.0020244864281266928,3.9219507016241584e-05,0.0002738159673754126,1.2184696791468346e-07,0.0,0.0,0.0,1.2184696791468346e-07,0.0,0.0,0.0,1.2184696791468346e-07,1.424961805343628,-0.6236612200736987,9.697503089904785,8.999999999999999e-08,0.0,0.0,0.0,8.999999999999999e-08,0.0,0.0,0.0,8.999999999999999e-08
1676104290.8852046,7359,1676104290,881626816,base_link,0.03322243246281846,0.07305797941151143,0.016632242240460168,-0.9966354842628014,1.0,0.0,0.0,0.0,1.0,0.0,0.0,0.0,1.0,-0.00020034518092870712,-0.0003722856054082512,0.0007072973530739546,1.2184696791468346e-07,0.0,0.0,0.0,1.2184696791468346e-07,0.0,0.0,0.0,1.2184696791468346e-07,1.4426252841949463,-0.6148539781570422,9.68188190460205,8.999999999999999e-08,0.0,0.0,0.0,8.999999999999999e-08,0.0,0.0,0.0,8.999999999999999e-08
1676104290.9025,7360,1676104290,896626816,base_link,0.03321213019253558,0.07305395175330061,0.016634602463976786,-0.9966360743186805,1.0,0.0,0.0,0.0,1.0,0.0,0.0,0.0,1.0,-0.001662763999775052,-0.00030527234775945555,-0.0007348186336457729,1.2184696791468346e-07,0.0,0.0,0.0,1.2184696791468346e-07,0.0,0.0,0.0,1.2184696791468346e-07,1.4394662380218506,-0.6331992149353015,9.685711860656738,8.999999999999999e-08,0.0,0.0,0.0,8.999999999999999e-08,0.0,0.0,0.0,8.999999999999999e-08
1676104290.9242277,7361,1676104290,916631424,base_link,0.0332193834017465,0.07305413746285186,0.016633338058521453,-0.9966358214375894,1.0,0.0,0.0,0.0,1.0,0.0,0.0,0.0,1.0,-0.0006751380860805511,0.0008718392346054317,0.00046628384734503914,1.2184696791468346e-07,0.0,0.0,0.0,1.2184696791468346e-07,0.0,0.0,0.0,1.2184696791468346e-07,1.4633855819702148,-0.6382250189781177,9.680495262145996,8.999999999999999e-08,0.0,0.0,0.0,8.999999999999999e-08,0.0,0.0,0.0,8.999999999999999e-08
1676104290.944734,7362,1676104290,941631424,base_link,0.03322036990141946,0.07305131757526868,0.016632031506217608,-0.9966360321718319,1.0,0.0,0.0,0.0,1.0,0.0,0.0,0.0,1.0,-0.001072161947377026,0.0006226564291864632,-0.0005894100759178401,1.2184696791468346e-07,0.0,0.0,0.0,1.2184696791468346e-07,0.0,0.0,0.0,1.2184696791468346e-07,1.4400376081466675,-0.6450203657150256,9.676801681518555,8.999999999999999e-08,0.0,0.0,0.0,8.999999999999999e-08,0.0,0.0,0.0,8.999999999999999e-08
1676104290.9617004,7363,1676104290,956631424,base_link,0.033214369243862715,0.07304894154668388,0.01662983987009503,-0.996636453640317,1.0,0.0,0.0,0.0,1.0,0.0,0.0,0.0,1.0,0.0029743092600256205,-0.0003206333494745193,0.0018560774624347687,1.2184696791468346e-07,0.0,0.0,0.0,1.2184696791468346e-07,0.0,0.0,0.0,1.2184696791468346e-07,1.4261133670806885,-0.6285393238067615,9.663348197937012,8.999999999999999e-08,0.0,0.0,0.0,8.999999999999999e-08,0.0,0.0,0.0,8.999999999999999e-08
1676104290.9827857,7364,1676104290,976631424,base_link,0.03320985031144894,0.07305204855967254,0.016633970261249117,-0.996636285052923,1.0,0.0,0.0,0.0,1.0,0.0,0.0,0.0,1.0,-0.001993307378143072,0.000767648103646934,-0.00041057076305150997,1.2184696791468346e-07,0.0,0.0,0.0,1.2184696791468346e-07,0.0,0.0,0.0,1.2184696791468346e-07,1.4364020824432373,-0.6306078433990466,9.662205696105957,8.999999999999999e-08,0.0,0.0,0.0,8.999999999999999e-08,0.0,0.0,0.0,8.999999999999999e-08
1676104291.009797,7365,1676104291,1631424,base_link,0.03321930305931653,0.07305383848364524,0.016631567890883988,-0.9966359057312865,1.0,0.0,0.0,0.0,1.0,0.0,0.0,0.0,1.0,0.002236907137557864,0.00025567959528416406,0.0007983840769156814,1.2184696791468346e-07,0.0,0.0,0.0,1.2184696791468346e-07,0.0,0.0,0.0,1.2184696791468346e-07,1.4481604099273682,-0.6275012493133533,9.652373313903809,8.999999999999999e-08,0.0,0.0,0.0,8.999999999999999e-08,0.0,0.0,0.0,8.999999999999999e-08
1676104291.0216472,7366,1676104291,16635776,base_link,0.033226456169762233,0.0730562527078115,0.0166308513944593,-0.9966354421159528,1.0,0.0,0.0,0.0,1.0,0.0,0.0,0.0,1.0,0.002361074322834611,0.002017159480601549,0.0006215332541614769,1.2184696791468346e-07,0.0,0.0,0.0,1.2184696791468346e-07,0.0,0.0,0.0,1.2184696791468346e-07,1.4508590698242188,-0.6342455148696887,9.674304962158203,8.999999999999999e-08,0.0,0.0,0.0,8.999999999999999e-08,0.0,0.0,0.0,8.999999999999999e-08
1676104291.043526,7367,1676104291,36635776,base_link,0.03322018155769017,0.07305436136798457,0.016630261338580147,-0.9966358635844379,1.0,0.0,0.0,0.0,1.0,0.0,0.0,0.0,1.0,0.0021644083317369223,-7.043662481009959e-05,9.713039617054166e-05,1.2184696791468346e-07,0.0,0.0,0.0,1.2184696791468346e-07,0.0,0.0,0.0,1.2184696791468346e-07,1.4575796127319336,-0.6162890195846545,9.679203033447266,8.999999999999999e-08,0.0,0.0,0.0,8.999999999999999e-08,0.0,0.0,0.0,8.999999999999999e-08
1676104291.0613356,7368,1676104291,56635776,base_link,0.03321366723541721,0.07305090796058472,0.016626678856456703,-0.9966363271997715,1.0,0.0,0.0,0.0,1.0,0.0,0.0,0.0,1.0,-0.0024354064371436834,8.857285138219587e-05,-0.0006419307319447398,1.2184696791468346e-07,0.0,0.0,0.0,1.2184696791468346e-07,0.0,0.0,0.0,1.2184696791468346e-07,1.4530822038650513,-0.6475495696067798,9.657203674316406,8.999999999999999e-08,0.0,0.0,0.0,8.999999999999999e-08,0.0,0.0,0.0,8.999999999999999e-08
1676104291.082304,7369,1676104291,76635776,base_link,0.03322186479745258,0.0730526465180858,0.016629376254761415,-0.9966359057312864,1.0,0.0,0.0,0.0,1.0,0.0,0.0,0.0,1.0,-0.0005722973728552461,-0.0015428292099386451,0.0016108623240143063,1.2184696791468346e-07,0.0,0.0,0.0,1.2184696791468346e-07,0.0,0.0,0.0,1.2184696791468346e-07,1.4435882568359375,-0.6243651509284961,9.663926124572754,8.999999999999999e-08,0.0,0.0,0.0,8.999999999999999e-08,0.0,0.0,0.0,8.999999999999999e-08
1676104291.103284,7370,1676104291,96635776,base_link,0.03322741632765487,0.07305544006388866,0.01662355998966689,-0.9966356528501954,1.0,0.0,0.0,0.0,1.0,0.0,0.0,0.0,1.0,0.0015648719854652882,0.001204472384415567,8.257824811153099e-05,1.2184696791468346e-07,0.0,0.0,0.0,1.2184696791468346e-07,0.0,0.0,0.0,1.2184696791468346e-07,1.4273123741149902,-0.6256135702133166,9.68172550201416,8.999999999999999e-08,0.0,0.0,0.0,8.999999999999999e-08,0.0,0.0,0.0,8.999999999999999e-08
1676104291.1246514,7371,1676104291,121639872,base_link,0.03322754540237844,0.0730526557377089,0.01662060971027117,-0.9966359057312865,1.0,0.0,0.0,0.0,1.0,0.0,0.0,0.0,1.0,-0.001872682711109519,0.00010797346476465477,0.0011581367580220103,1.2184696791468346e-07,0.0,0.0,0.0,1.2184696791468346e-07,0.0,0.0,0.0,1.2184696791468346e-07,1.4363561868667603,-0.6260026693344104,9.667269706726074,8.999999999999999e-08,0.0,0.0,0.0,8.999999999999999e-08,0.0,0.0,0.0,8.999999999999999e-08
1676104291.1448069,7372,1676104291,141639872,base_link,0.03321569818667983,0.07305272290924872,0.016619471745361367,-0.996636285052923,1.0,0.0,0.0,0.0,1.0,0.0,0.0,0.0,1.0,0.0007945236284285784,-0.0005229619564488532,-0.0015006405301392078,1.2184696791468346e-07,0.0,0.0,0.0,1.2184696791468346e-07,0.0,0.0,0.0,1.2184696791468346e-07,1.462343692779541,-0.6300659775733936,9.67218017578125,8.999999999999999e-08,0.0,0.0,0.0,8.999999999999999e-08,0.0,0.0,0.0,8.999999999999999e-08
1676104291.1622388,7373,1676104291,156639872,base_link,0.0332131298630987,0.07305151908988812,0.016623728577060928,-0.9966364114934685,1.0,0.0,0.0,0.0,1.0,0.0,0.0,0.0,1.0,-0.0012049453798681498,0.0006320540560409427,0.0003881262673530727,1.2184696791468346e-07,0.0,0.0,0.0,1.2184696791468346e-07,0.0,0.0,0.0,1.2184696791468346e-07,1.4345293045043945,-0.6290034055709827,9.675368309020996,8.999999999999999e-08,0.0,0.0,0.0,8.999999999999999e-08,0.0,0.0,0.0,8.999999999999999e-08
1676104291.1837494,7374,1676104291,176639872,base_link,0.03321481178577208,0.07305256617565582,0.016621284059847342,-0.9966363271997716,1.0,0.0,0.0,0.0,1.0,0.0,0.0,0.0,1.0,0.0016561008524149656,0.0008553540101274849,0.0006271270103752612,1.2184696791468346e-07,0.0,0.0,0.0,1.2184696791468346e-07,0.0,0.0,0.0,1.2184696791468346e-07,1.4320522546768188,-0.6311419606208789,9.687259674072266,8.999999999999999e-08,0.0,0.0,0.0,8.999999999999999e-08,0.0,0.0,0.0,8.999999999999999e-08
1676104291.2079597,7375,1676104291,201639872,base_link,0.033219062032026604,0.07305453258955666,0.01662204270312049,-0.9966359900249835,1.0,0.0,0.0,0.0,1.0,0.0,0.0,0.0,1.0,-0.00332877435721457,0.0002473209751769902,0.0014180324506014585,1.2184696791468346e-07,0.0,0.0,0.0,1.2184696791468346e-07,0.0,0.0,0.0,1.2184696791468346e-07,1.4314078092575073,-0.6466488838195789,9.672239303588867,8.999999999999999e-08,0.0,0.0,0.0,8.999999999999999e-08,0.0,0.0,0.0,8.999999999999999e-08
1676104291.222861,7376,1676104291,216644480,base_link,0.03321222765712276,0.07305933337901985,0.016611084522507667,-0.9966360743186804,1.0,0.0,0.0,0.0,1.0,0.0,0.0,0.0,1.0,-0.0003210941795259714,-0.0009753984049893916,0.00033570404048077773,1.2184696791468346e-07,0.0,0.0,0.0,1.2184696791468346e-07,0.0,0.0,0.0,1.2184696791468346e-07,1.4316484928131104,-0.6304975748062122,9.67268180847168,8.999999999999999e-08,0.0,0.0,0.0,8.999999999999999e-08,0.0,0.0,0.0,8.999999999999999e-08
1676104291.244444,7377,1676104291,236644480,base_link,0.0332162566324226,0.07306211111975452,0.01661188531262938,-0.9966356949970439,1.0,0.0,0.0,0.0,1.0,0.0,0.0,0.0,1.0,-0.0018185288645327091,0.0006223624804988503,-0.00042395992204546934,1.2184696791468346e-07,0.0,0.0,0.0,1.2184696791468346e-07,0.0,0.0,0.0,1.2184696791468346e-07,1.4164198637008667,-0.6277456283569324,9.682955741882324,8.999999999999999e-08,0.0,0.0,0.0,8.999999999999999e-08,0.0,0.0,0.0,8.999999999999999e-08
1676104291.2636573,7378,1676104291,261644480,base_link,0.03321346045244171,0.0730655500391752,0.01661264395590258,-0.9966355264096498,1.0,0.0,0.0,0.0,1.0,0.0,0.0,0.0,1.0,0.000861473148688674,-0.001414122059941292,-0.001116283470764756,1.2184696791468346e-07,0.0,0.0,0.0,1.2184696791468346e-07,0.0,0.0,0.0,1.2184696791468346e-07,1.4424206018447876,-0.6359612941741931,9.673463821411133,8.999999999999999e-08,0.0,0.0,0.0,8.999999999999999e-08,0.0,0.0,0.0,8.999999999999999e-08
1676104291.282727,7379,1676104291,276644480,base_link,0.03321985887088126,0.0730723646577438,0.016613866214509405,-0.9966348099132251,1.0,0.0,0.0,0.0,1.0,0.0,0.0,0.0,1.0,0.002159523544833064,0.00017996877431869512,0.0004768560465890914,1.2184696791468346e-07,0.0,0.0,0.0,1.2184696791468346e-07,0.0,0.0,0.0,1.2184696791468346e-07,1.459128737449646,-0.6513335108757007,9.678071022033691,8.999999999999999e-08,0.0,0.0,0.0,8.999999999999999e-08,0.0,0.0,0.0,8.999999999999999e-08
1676104291.304426,7380,1676104291,301644480,base_link,0.033221601379649385,0.07306605975262438,0.016608724298991052,-0.9966353156754073,1.0,0.0,0.0,0.0,1.0,0.0,0.0,0.0,1.0,0.0007664947770535946,0.00012289953883737337,0.0009229016723111272,1.2184696791468346e-07,0.0,0.0,0.0,1.2184696791468346e-07,0.0,0.0,0.0,1.2184696791468346e-07,1.4437466859817505,-0.6366345286369312,9.676575660705566,8.999999999999999e-08,0.0,0.0,0.0,8.999999999999999e-08,0.0,0.0,0.0,8.999999999999999e-08
1676104291.3221807,7381,1676104291,316648832,base_link,0.03321980223605358,0.07306935510934233,0.01660358238347276,-0.9966352313817103,1.0,0.0,0.0,0.0,1.0,0.0,0.0,0.0,1.0,-0.0013896897435188293,0.0001284414902329445,-0.00010365506750531496,1.2184696791468346e-07,0.0,0.0,0.0,1.2184696791468346e-07,0.0,0.0,0.0,1.2184696791468346e-07,1.460403561592102,-0.6158015131950366,9.684048652648926,8.999999999999999e-08,0.0,0.0,0.0,8.999999999999999e-08,0.0,0.0,0.0,8.999999999999999e-08
1676104291.3447866,7382,1676104291,340648832,base_link,0.03322483483318358,0.07307480654077941,0.01660231797801743,-0.9966346413258311,1.0,0.0,0.0,0.0,1.0,0.0,0.0,0.0,1.0,0.0010075985919684172,-6.571877747774123e-05,0.00013557568308897316,1.2184696791468346e-07,0.0,0.0,0.0,1.2184696791468346e-07,0.0,0.0,0.0,1.2184696791468346e-07,1.432665228843689,-0.6233629584312427,9.692463874816895,8.999999999999999e-08,0.0,0.0,0.0,8.999999999999999e-08,0.0,0.0,0.0,8.999999999999999e-08
1676104291.3619986,7383,1676104291,355648832,base_link,0.03322767184292397,0.07307840746214905,0.016602444418562963,-0.9966342620041945,1.0,0.0,0.0,0.0,1.0,0.0,0.0,0.0,1.0,0.000948428176343441,0.002299840562045574,-0.00043810255010612336,1.2184696791468346e-07,0.0,0.0,0.0,1.2184696791468346e-07,0.0,0.0,0.0,1.2184696791468346e-07,1.4205842018127441,-0.6400347352027881,9.673728942871094,8.999999999999999e-08,0.0,0.0,0.0,8.999999999999999e-08,0.0,0.0,0.0,8.999999999999999e-08
1676104291.3832917,7384,1676104291,375648832,base_link,0.03322182133351505,0.07306967516197321,0.01660324520868467,-0.9966350627943162,1.0,0.0,0.0,0.0,1.0,0.0,0.0,0.0,1.0,-0.0006607142277061939,-0.0016897858586162329,0.0007115795742720368,1.2184696791468346e-07,0.0,0.0,0.0,1.2184696791468346e-07,0.0,0.0,0.0,1.2184696791468346e-07,1.444113850593567,-0.6207781434059131,9.679312705993652,8.999999999999999e-08,0.0,0.0,0.0,8.999999999999999e-08,0.0,0.0,0.0,8.999999999999999e-08
1676104291.407312,7385,1676104291,400648832,base_link,0.03322557767138858,0.07307537025487824,0.016602233684320407,-0.9966345570321341,1.0,0.0,0.0,0.0,1.0,0.0,0.0,0.0,1.0,0.002338825026527047,1.6202800907194655e-05,0.00034013009280897677,1.2184696791468346e-07,0.0,0.0,0.0,1.2184696791468346e-07,0.0,0.0,0.0,1.2184696791468346e-07,1.4304753541946411,-0.6379314661025989,9.680840492248535,8.999999999999999e-08,0.0,0.0,0.0,8.999999999999999e-08,0.0,0.0,0.0,8.999999999999999e-08
1676104291.4220061,7386,1676104291,415653440,base_link,0.03323198794362929,0.07307951776818952,0.016605015376322137,-0.996634051269952,1.0,0.0,0.0,0.0,1.0,0.0,0.0,0.0,1.0,-0.0009311664616689086,-0.0006734233465977013,0.00014653734979219743,1.2184696791468346e-07,0.0,0.0,0.0,1.2184696791468346e-07,0.0,0.0,0.0,1.2184696791468346e-07,1.445357322692871,-0.6219496726989734,9.675679206848145,8.999999999999999e-08,0.0,0.0,0.0,8.999999999999999e-08,0.0,0.0,0.0,8.999999999999999e-08
1676104291.4444046,7387,1676104291,440653440,base_link,0.033237314251609855,0.07308678283120158,0.01660712271874764,-0.9966332926266788,1.0,0.0,0.0,0.0,1.0,0.0,0.0,0.0,1.0,-0.0022266018204391003,0.000383556354790926,0.0001677282562013715,1.2184696791468346e-07,0.0,0.0,0.0,1.2184696791468346e-07,0.0,0.0,0.0,1.2184696791468346e-07,1.4395091533660889,-0.6477736830711353,9.67951488494873,8.999999999999999e-08,0.0,0.0,0.0,8.999999999999999e-08,0.0,0.0,0.0,8.999999999999999e-08
1676104291.4643397,7388,1676104291,460653440,base_link,0.03323577984290626,0.07308360732958409,0.0166018122158353,-0.9966336298014669,1.0,0.0,0.0,0.0,1.0,0.0,0.0,0.0,1.0,0.0012519259471446276,0.0018064392497763038,0.0008801162475720046,1.2184696791468346e-07,0.0,0.0,0.0,1.2184696791468346e-07,0.0,0.0,0.0,1.2184696791468346e-07,1.4396846294403076,-0.6295685768127429,9.679179191589355,8.999999999999999e-08,0.0,0.0,0.0,8.999999999999999e-08,0.0,0.0,0.0,8.999999999999999e-08
1676104291.4824383,7389,1676104291,475653440,base_link,0.03322932347254999,0.073087229324378,0.016608808592688082,-0.9966334612140728,1.0,0.0,0.0,0.0,1.0,0.0,0.0,0.0,1.0,-0.0031579406931996346,-0.001820602104999125,0.0006062535103410485,1.2184696791468346e-07,0.0,0.0,0.0,1.2184696791468346e-07,0.0,0.0,0.0,1.2184696791468346e-07,1.439139485359192,-0.6556943058967578,9.695406913757324,8.999999999999999e-08,0.0,0.0,0.0,8.999999999999999e-08,0.0,0.0,0.0,8.999999999999999e-08
1676104291.5075939,7390,1676104291,501653440,base_link,0.033230282313353614,0.07308955793775822,0.016604383173594476,-0.9966333347735272,1.0,0.0,0.0,0.0,1.0,0.0,0.0,0.0,1.0,0.0003872206434607506,8.175265975296507e-05,0.0007214416982606053,1.2184696791468346e-07,0.0,0.0,0.0,1.2184696791468346e-07,0.0,0.0,0.0,1.2184696791468346e-07,1.4536782503128052,-0.6413519382476794,9.676078796386719,8.999999999999999e-08,0.0,0.0,0.0,8.999999999999999e-08,0.0,0.0,0.0,8.999999999999999e-08
1676104291.5227256,7391,1676104291,515658048,base_link,0.033241912209364594,0.07309161523080115,0.016603919558260856,-0.9966327868644966,1.0,0.0,0.0,0.0,1.0,0.0,0.0,0.0,1.0,0.0031158418860286474,0.0015365219442173839,5.068295286037009e-05,1.2184696791468346e-07,0.0,0.0,0.0,1.2184696791468346e-07,0.0,0.0,0.0,1.2184696791468346e-07,1.447116732597351,-0.6184047460556018,9.662459373474121,8.999999999999999e-08,0.0,0.0,0.0,8.999999999999999e-08,0.0,0.0,0.0,8.999999999999999e-08
1676104291.5464256,7392,1676104291,540658048,base_link,0.03323484866097197,0.07309266231656886,0.016601390747350193,-0.9966330397455877,1.0,0.0,0.0,0.0,1.0,0.0,0.0,0.0,1.0,-0.0019503039075061679,0.0008318651234731078,-0.0003768648602999748,1.2184696791468346e-07,0.0,0.0,0.0,1.2184696791468346e-07,0.0,0.0,0.0,1.2184696791468346e-07,1.4401077032089233,-0.6405371427535999,9.69511604309082,8.999999999999999e-08,0.0,0.0,0.0,8.999999999999999e-08,0.0,0.0,0.0,8.999999999999999e-08
1676104291.5615525,7393,1676104291,555658048,base_link,0.03322751379224205,0.07309051414438382,0.016600337076137412,-0.9966334190672242,1.0,0.0,0.0,0.0,1.0,0.0,0.0,0.0,1.0,-0.002904413966462016,0.000316714053042233,-0.00013879817561246457,1.2184696791468346e-07,0.0,0.0,0.0,1.2184696791468346e-07,0.0,0.0,0.0,1.2184696791468346e-07,1.4417883157730103,-0.6427572965621936,9.682289123535156,8.999999999999999e-08,0.0,0.0,0.0,8.999999999999999e-08,0.0,0.0,0.0,8.999999999999999e-08
1676104291.5836623,7394,1676104291,580658048,base_link,0.033234122944924165,0.07309137552060026,0.016598103293166327,-0.9966332083329817,1.0,0.0,0.0,0.0,1.0,0.0,0.0,0.0,1.0,0.001779115991666913,0.0008432593895122409,0.00028215968632139255,1.2184696791468346e-07,0.0,0.0,0.0,1.2184696791468346e-07,0.0,0.0,0.0,1.2184696791468346e-07,1.4405401945114136,-0.6145915389060962,9.68354320526123,8.999999999999999e-08,0.0,0.0,0.0,8.999999999999999e-08,0.0,0.0,0.0,8.999999999999999e-08
1676104291.606441,7395,1676104291,600658048,base_link,0.03324583713463217,0.07309711012617577,0.016593509286678625,-0.996632491836557,1.0,0.0,0.0,0.0,1.0,0.0,0.0,0.0,1.0,-0.0027209261897951365,-0.0007459917105734348,-5.123787559568873e-05,1.2184696791468346e-07,0.0,0.0,0.0,1.2184696791468346e-07,0.0,0.0,0.0,1.2184696791468346e-07,1.4477133750915527,-0.6459727287292468,9.663993835449219,8.999999999999999e-08,0.0,0.0,0.0,8.999999999999999e-08,0.0,0.0,0.0,8.999999999999999e-08
1676104291.62174,7396,1676104291,615662656,base_link,0.033238233579742996,0.07310084670771407,0.016591907706435205,-0.996632491836557,1.0,0.0,0.0,0.0,1.0,0.0,0.0,0.0,1.0,0.00022969325073063374,9.3264621682465e-05,-0.0007003526552580297,1.2184696791468346e-07,0.0,0.0,0.0,1.2184696791468346e-07,0.0,0.0,0.0,1.2184696791468346e-07,1.4581458568572998,-0.6450555324554431,9.693292617797852,8.999999999999999e-08,0.0,0.0,0.0,8.999999999999999e-08,0.0,0.0,0.0,8.999999999999999e-08
1676104291.6442652,7397,1676104291,640662656,base_link,0.03323646736337259,0.07310203340491744,0.01659013753879774,-0.996632491836557,1.0,0.0,0.0,0.0,1.0,0.0,0.0,0.0,1.0,0.0021906786132603884,0.000807769363746047,-0.0003204536042176188,1.2184696791468346e-07,0.0,0.0,0.0,1.2184696791468346e-07,0.0,0.0,0.0,1.2184696791468346e-07,1.4307724237442017,-0.658412694931029,9.681246757507324,8.999999999999999e-08,0.0,0.0,0.0,8.999999999999999e-08,0.0,0.0,0.0,8.999999999999999e-08
1676104291.6645284,7398,1676104291,660662656,base_link,0.03323885129449149,0.07310361127755857,0.016590053245100718,-0.996632323249163,1.0,0.0,0.0,0.0,1.0,0.0,0.0,0.0,1.0,0.0011972945649176836,0.0003691985039040448,0.0011830575531348586,1.2184696791468346e-07,0.0,0.0,0.0,1.2184696791468346e-07,0.0,0.0,0.0,1.2184696791468346e-07,1.4439592361450195,-0.6078933477401721,9.66850757598877,8.999999999999999e-08,0.0,0.0,0.0,8.999999999999999e-08,0.0,0.0,0.0,8.999999999999999e-08
1676104291.6821578,7399,1676104291,675662656,base_link,0.033246482508249985,0.0731084555309593,0.016590179685646255,-0.9966316067527383,1.0,0.0,0.0,0.0,1.0,0.0,0.0,0.0,1.0,0.0030302784871309996,0.00036040414124727255,0.0005027037113904953,1.2184696791468346e-07,0.0,0.0,0.0,1.2184696791468346e-07,0.0,0.0,0.0,1.2184696791468346e-07,1.4606231451034546,-0.6431652903556812,9.679088592529297,8.999999999999999e-08,0.0,0.0,0.0,8.999999999999999e-08,0.0,0.0,0.0,8.999999999999999e-08
1676104291.7034233,7400,1676104291,700662656,base_link,0.033244429166474104,0.07311380686363116,0.016588367371160335,-0.9966313960184957,1.0,0.0,0.0,0.0,1.0,0.0,0.0,0.0,1.0,-0.001907252473756671,-0.001532221329398453,0.0020769708789885044,1.2184696791468346e-07,0.0,0.0,0.0,1.2184696791468346e-07,0.0,0.0,0.0,1.2184696791468346e-07,1.4492851495742798,-0.6186574101448047,9.683418273925781,8.999999999999999e-08,0.0,0.0,0.0,8.999999999999999e-08,0.0,0.0,0.0,8.999999999999999e-08
1676104291.7238092,7401,1676104291,720667264,base_link,0.03324512327238551,0.0731193294178751,0.016592582056011388,-0.9966308902563136,1.0,0.0,0.0,0.0,1.0,0.0,0.0,0.0,1.0,-0.00025132426526397467,-2.1206564269960008e-05,-0.0006706531858071685,1.2184696791468346e-07,0.0,0.0,0.0,1.2184696791468346e-07,0.0,0.0,0.0,1.2184696791468346e-07,1.4594844579696655,-0.6381006240844714,9.680230140686035,8.999999999999999e-08,0.0,0.0,0.0,8.999999999999999e-08,0.0,0.0,0.0,8.999999999999999e-08
1676104291.7449672,7402,1676104291,735667264,base_link,0.03324977786496794,0.07311697182853653,0.016598440467954428,-0.9966307638157681,1.0,0.0,0.0,0.0,1.0,0.0,0.0,0.0,1.0,-0.001562048913910985,-0.00012644805246964083,0.0010164231061935425,1.2184696791468346e-07,0.0,0.0,0.0,1.2184696791468346e-07,0.0,0.0,0.0,1.2184696791468346e-07,1.4357860088348389,-0.63936549425125,9.67570686340332,8.999999999999999e-08,0.0,0.0,0.0,8.999999999999999e-08,0.0,0.0,0.0,8.999999999999999e-08
1676104291.7631593,7403,1676104291,760667264,base_link,0.03324894678179886,0.07312512592663437,0.016604425320442946,-0.9966300894661919,1.0,0.0,0.0,0.0,1.0,0.0,0.0,0.0,1.0,-0.00010633456986397505,-0.001765677006915212,-0.001486781286075711,1.2184696791468346e-07,0.0,0.0,0.0,1.2184696791468346e-07,0.0,0.0,0.0,1.2184696791468346e-07,1.4401826858520508,-0.6384835839271533,9.681142807006836,8.999999999999999e-08,0.0,0.0,0.0,8.999999999999999e-08,0.0,0.0,0.0,8.999999999999999e-08
1676104291.7823308,7404,1676104291,775667264,base_link,0.03324387335490936,0.07312411967062617,0.016607038425050628,-0.996630342347283,1.0,0.0,0.0,0.0,1.0,0.0,0.0,0.0,1.0,0.002014118479564786,0.0010386629728600385,0.0013685084413737056,1.2184696791468346e-07,0.0,0.0,0.0,1.2184696791468346e-07,0.0,0.0,0.0,1.2184696791468346e-07,1.4411790370941162,-0.6245857477188098,9.67834758758545,8.999999999999999e-08,0.0,0.0,0.0,8.999999999999999e-08,0.0,0.0,0.0,8.999999999999999e-08
1676104291.804363,7405,1676104291,795667264,base_link,0.03323888158753885,0.07312164090909813,0.016606574809717008,-0.9966306373752225,1.0,0.0,0.0,0.0,1.0,0.0,0.0,0.0,1.0,-0.0009040649747475982,-0.00014420831575989704,0.0015668636187911034,1.2184696791468346e-07,0.0,0.0,0.0,1.2184696791468346e-07,0.0,0.0,0.0,1.2184696791468346e-07,1.4218131303787231,-0.615615129470824,9.665912628173828,8.999999999999999e-08,0.0,0.0,0.0,8.999999999999999e-08,0.0,0.0,0.0,8.999999999999999e-08
1676104291.8230286,7406,1676104291,820671872,base_link,0.033234419289952764,0.07312669326256337,0.0166027394465025,-0.996630510934677,1.0,0.0,0.0,0.0,1.0,0.0,0.0,0.0,1.0,0.0029908076394349337,-0.0016549827996641397,-0.0003248479333706198,1.2184696791468346e-07,0.0,0.0,0.0,1.2184696791468346e-07,0.0,0.0,0.0,1.2184696791468346e-07,1.438545823097229,-0.6321597099304187,9.69489574432373,8.999999999999999e-08,0.0,0.0,0.0,8.999999999999999e-08,0.0,0.0,0.0,8.999999999999999e-08
1676104291.8455768,7407,1676104291,840671872,base_link,0.03323796489358374,0.07313145058808904,0.01660341379607868,-0.9966300051724949,1.0,0.0,0.0,0.0,1.0,0.0,0.0,0.0,1.0,-9.294971823692322e-05,1.3782642781734406e-05,-0.000494192005135119,1.2184696791468346e-07,0.0,0.0,0.0,1.2184696791468346e-07,0.0,0.0,0.0,1.2184696791468346e-07,1.4310675859451294,-0.6223822236061084,9.67884349822998,8.999999999999999e-08,0.0,0.0,0.0,8.999999999999999e-08,0.0,0.0,0.0,8.999999999999999e-08
1676104291.8617976,7408,1676104291,855671872,base_link,0.03324324642053776,0.07313535707411038,0.01659924125807614,-0.9966296258508583,1.0,0.0,0.0,0.0,1.0,0.0,0.0,0.0,1.0,0.0009941994212567806,0.0001648099860176445,0.0005701720947399735,1.2184696791468346e-07,0.0,0.0,0.0,1.2184696791468346e-07,0.0,0.0,0.0,1.2184696791468346e-07,1.4547507762908936,-0.6407120823860156,9.69198989868164,8.999999999999999e-08,0.0,0.0,0.0,8.999999999999999e-08,0.0,0.0,0.0,8.999999999999999e-08
1676104291.8834417,7409,1676104291,880671872,base_link,0.033245393275633785,0.07313637123265268,0.016600589957228497,-0.9966294572634643,1.0,0.0,0.0,0.0,1.0,0.0,0.0,0.0,1.0,0.0007522820960730314,-7.327063940465386e-06,0.0005256948061287403,1.2184696791468346e-07,0.0,0.0,0.0,1.2184696791468346e-07,0.0,0.0,0.0,1.2184696791468346e-07,1.4212408065795898,-0.6175620555877673,9.672199249267578,8.999999999999999e-08,0.0,0.0,0.0,8.999999999999999e-08,0.0,0.0,0.0,8.999999999999999e-08
1676104291.9054644,7410,1676104291,900671872,base_link,0.03323720888448858,0.07314271169917554,0.01659822973371188,-0.9966292886760703,1.0,0.0,0.0,0.0,1.0,0.0,0.0,0.0,1.0,0.0024262925144284964,-0.0009298386867158115,-3.4826894989237074e-05,1.2184696791468346e-07,0.0,0.0,0.0,1.2184696791468346e-07,0.0,0.0,0.0,1.2184696791468346e-07,1.4377896785736084,-0.6260860562324512,9.665678024291992,8.999999999999999e-08,0.0,0.0,0.0,8.999999999999999e-08,0.0,0.0,0.0,8.999999999999999e-08
1676104291.922069,7411,1676104291,915676736,base_link,0.03324168698714285,0.07314317531450916,0.016605478991655726,-0.9966290357949791,1.0,0.0,0.0,0.0,1.0,0.0,0.0,0.0,1.0,0.001982596004381776,0.0004080986836925148,-0.0010602165712043643,1.2184696791468346e-07,0.0,0.0,0.0,1.2184696791468346e-07,0.0,0.0,0.0,1.2184696791468346e-07,1.436851143836975,-0.6343122124671924,9.672042846679688,8.999999999999999e-08,0.0,0.0,0.0,8.999999999999999e-08,0.0,0.0,0.0,8.999999999999999e-08
1676104291.9448926,7412,1676104291,940676736,base_link,0.03324970147380501,0.07314292638468514,0.016601475041047174,-0.9966288250607366,1.0,0.0,0.0,0.0,1.0,0.0,0.0,0.0,1.0,-0.002769630867987871,-0.0005601216107606886,0.0014288068050518632,1.2184696791468346e-07,0.0,0.0,0.0,1.2184696791468346e-07,0.0,0.0,0.0,1.2184696791468346e-07,1.4537060260772705,-0.6481342315673816,9.666650772094727,8.999999999999999e-08,0.0,0.0,0.0,8.999999999999999e-08,0.0,0.0,0.0,8.999999999999999e-08
1676104291.9642234,7413,1676104291,960676736,base_link,0.033245091662249135,0.07314665111242229,0.016598946230136566,-0.9966287407670396,1.0,0.0,0.0,0.0,1.0,0.0,0.0,0.0,1.0,0.00043327128514647484,0.0004360803868621587,-0.00039204896893352276,1.2184696791468346e-07,0.0,0.0,0.0,1.2184696791468346e-07,0.0,0.0,0.0,1.2184696791468346e-07,1.426680088043213,-0.6282806396484363,9.692843437194824,8.999999999999999e-08,0.0,0.0,0.0,8.999999999999999e-08,0.0,0.0,0.0,8.999999999999999e-08
1676104291.982547,7414,1676104291,975676736,base_link,0.033246756462765314,0.07315701923715597,0.016595237307467595,-0.9966279821237664,1.0,0.0,0.0,0.0,1.0,0.0,0.0,0.0,1.0,-0.002867734059691429,-0.0023426925763487816,-0.000562728499062359,1.2184696791468346e-07,0.0,0.0,0.0,1.2184696791468346e-07,0.0,0.0,0.0,1.2184696791468346e-07,1.4531461000442505,-0.6383287906646716,9.677217483520508,8.999999999999999e-08,0.0,0.0,0.0,8.999999999999999e-08,0.0,0.0,0.0,8.999999999999999e-08
1676104292.0064478,7415,1676104292,676736,base_link,0.033244746584926946,0.07315757504872071,0.016592708496556932,-0.9966280664174634,1.0,0.0,0.0,0.0,1.0,0.0,0.0,0.0,1.0,0.00019960617646574974,-0.0003199352067895232,0.0012416326208040118,1.2184696791468346e-07,0.0,0.0,0.0,1.2184696791468346e-07,0.0,0.0,0.0,1.2184696791468346e-07,1.431376338005066,-0.6336454153060901,9.681706428527832,8.999999999999999e-08,0.0,0.0,0.0,8.999999999999999e-08,0.0,0.0,0.0,8.999999999999999e-08
1676104292.0234623,7416,1676104292,20681344,base_link,0.033249866109932004,0.07316489938073849,0.016592287028071823,-0.9966273920678872,1.0,0.0,0.0,0.0,1.0,0.0,0.0,0.0,1.0,-0.0014518756652250886,-0.004112836439162493,0.0004414436116348957,1.2184696791468346e-07,0.0,0.0,0.0,1.2184696791468346e-07,0.0,0.0,0.0,1.2184696791468346e-07,1.455100655555725,-0.6299177408218372,9.6712646484375,8.999999999999999e-08,0.0,0.0,0.0,8.999999999999999e-08,0.0,0.0,0.0,8.999999999999999e-08
1676104292.0454426,7417,1676104292,35681344,base_link,0.0332401973594658,0.07316674989080593,0.01659135979740458,-0.9966275606552812,1.0,0.0,0.0,0.0,1.0,0.0,0.0,0.0,1.0,0.00045487494207918644,-0.0005204073386266826,0.0007730133365839721,1.2184696791468346e-07,0.0,0.0,0.0,1.2184696791468346e-07,0.0,0.0,0.0,1.2184696791468346e-07,1.4602171182632446,-0.6417308449745166,9.681670188903809,8.999999999999999e-08,0.0,0.0,0.0,8.999999999999999e-08,0.0,0.0,0.0,8.999999999999999e-08
1676104292.063169,7418,1676104292,60681344,base_link,0.033236795318537564,0.07316770741452053,0.016590432566737336,-0.9966276449489783,1.0,0.0,0.0,0.0,1.0,0.0,0.0,0.0,1.0,0.001996957464143634,-0.0002897283993661405,-0.0007155152270570397,1.2184696791468346e-07,0.0,0.0,0.0,1.2184696791468346e-07,0.0,0.0,0.0,1.2184696791468346e-07,1.4518970251083374,-0.6208192706108081,9.716458320617676,8.999999999999999e-08,0.0,0.0,0.0,8.999999999999999e-08,0.0,0.0,0.0,8.999999999999999e-08
1676104292.0853996,7419,1676104292,80681344,base_link,0.03324384042768397,0.07317427573744315,0.016597428943590176,-0.996626802012008,1.0,0.0,0.0,0.0,1.0,0.0,0.0,0.0,1.0,-0.00016387831419706345,-0.0002720371121540666,-0.00035766314249485726,1.2184696791468346e-07,0.0,0.0,0.0,1.2184696791468346e-07,0.0,0.0,0.0,1.2184696791468346e-07,1.4356012344360352,-0.6345943808555591,9.673760414123535,8.999999999999999e-08,0.0,0.0,0.0,8.999999999999999e-08,0.0,0.0,0.0,8.999999999999999e-08
1676104292.1077683,7420,1676104292,100681344,base_link,0.03325000440427868,0.07317127277448675,0.016596164538134846,-0.996626802012008,1.0,0.0,0.0,0.0,1.0,0.0,0.0,0.0,1.0,-0.001874491455964744,-0.0010244521545246243,-0.0005733787547796964,1.2184696791468346e-07,0.0,0.0,0.0,1.2184696791468346e-07,0.0,0.0,0.0,1.2184696791468346e-07,1.4631949663162231,-0.6164291501045215,9.695307731628418,8.999999999999999e-08,0.0,0.0,0.0,8.999999999999999e-08,0.0,0.0,0.0,8.999999999999999e-08
1676104292.1218765,7421,1676104292,115685184,base_link,0.03324697509954196,0.07317065637682728,0.01659350928667865,-0.9966270127462507,1.0,0.0,0.0,0.0,1.0,0.0,0.0,0.0,1.0,-0.0007796430727466941,1.9190832972526682e-05,0.0010717773111537099,1.2184696791468346e-07,0.0,0.0,0.0,1.2184696791468346e-07,0.0,0.0,0.0,1.2184696791468346e-07,1.436883568763733,-0.6509207487106311,9.681051254272461,8.999999999999999e-08,0.0,0.0,0.0,8.999999999999999e-08,0.0,0.0,0.0,8.999999999999999e-08
1676104292.1443408,7422,1676104292,140685184,base_link,0.03325099353812967,0.07317327606688004,0.016589463189221585,-0.9966267598651596,1.0,0.0,0.0,0.0,1.0,0.0,0.0,0.0,1.0,0.0014761507045477629,2.72867036983372e-05,0.0009896844858303666,1.2184696791468346e-07,0.0,0.0,0.0,1.2184696791468346e-07,0.0,0.0,0.0,1.2184696791468346e-07,1.431579828262329,-0.6409782171249377,9.670431137084961,8.999999999999999e-08,0.0,0.0,0.0,8.999999999999999e-08,0.0,0.0,0.0,8.999999999999999e-08
1676104292.1661384,7423,1676104292,160685184,base_link,0.03325408342896113,0.07318583319355824,0.016586386469280283,-0.9966257904876438,1.0,0.0,0.0,0.0,1.0,0.0,0.0,0.0,1.0,0.0022664249408990145,-0.0004814718849956989,0.0005297582829371096,1.2184696791468346e-07,0.0,0.0,0.0,1.2184696791468346e-07,0.0,0.0,0.0,1.2184696791468346e-07,1.4375617504119873,-0.6234909296035754,9.69031810760498,8.999999999999999e-08,0.0,0.0,0.0,8.999999999999999e-08,0.0,0.0,0.0,8.999999999999999e-08
1676104292.1828396,7424,1676104292,175685184,base_link,0.033256901999455295,0.07318159216692684,0.016579685120367078,-0.9966261698092804,1.0,0.0,0.0,0.0,1.0,0.0,0.0,0.0,1.0,0.0023048713337630033,3.870506770908818e-05,-0.0011481683468446136,1.2184696791468346e-07,0.0,0.0,0.0,1.2184696791468346e-07,0.0,0.0,0.0,1.2184696791468346e-07,1.4426064491271973,-0.6274623870849597,9.675970077514648,8.999999999999999e-08,0.0,0.0,0.0,8.999999999999999e-08,0.0,0.0,0.0,8.999999999999999e-08
1676104292.2031674,7425,1676104292,200685184,base_link,0.033265900351612365,0.07319571136117799,0.016578842183396864,-0.9966248211101281,1.0,0.0,0.0,0.0,1.0,0.0,0.0,0.0,1.0,-0.0005212543765082955,0.0018586994847282767,0.0006409370107576249,1.2184696791468346e-07,0.0,0.0,0.0,1.2184696791468346e-07,0.0,0.0,0.0,1.2184696791468346e-07,1.448795199394226,-0.6376194953918445,9.70306396484375,8.999999999999999e-08,0.0,0.0,0.0,8.999999999999999e-08,0.0,0.0,0.0,8.999999999999999e-08
1676104292.2257116,7426,1676104292,220689792,base_link,0.03325680453486811,0.07319632512465943,0.016585838560249644,-0.9966249054038251,1.0,0.0,0.0,0.0,1.0,0.0,0.0,0.0,1.0,0.0038898445200175047,-0.00011956796515733008,-0.00033969158539548516,1.2184696791468346e-07,0.0,0.0,0.0,1.2184696791468346e-07,0.0,0.0,0.0,1.2184696791468346e-07,1.4366159439086914,-0.6541346311569202,9.672403335571289,8.999999999999999e-08,0.0,0.0,0.0,8.999999999999999e-08,0.0,0.0,0.0,8.999999999999999e-08
1676104292.2424736,7427,1676104292,235689792,base_link,0.03325539524962103,0.07320466756648655,0.016588746692796908,-0.9966243574947944,1.0,0.0,0.0,0.0,1.0,0.0,0.0,0.0,1.0,0.0007339785806834698,0.0009339916286990047,4.9268506700172905e-05,1.2184696791468346e-07,0.0,0.0,0.0,1.2184696791468346e-07,0.0,0.0,0.0,1.2184696791468346e-07,1.4350147247314453,-0.6496679782867419,9.696151733398438,8.999999999999999e-08,0.0,0.0,0.0,8.999999999999999e-08,0.0,0.0,0.0,8.999999999999999e-08
1676104292.2626727,7428,1676104292,260689792,base_link,0.0332624627492807,0.07320776799403014,0.016585754266552625,-0.9966238938794608,1.0,0.0,0.0,0.0,1.0,0.0,0.0,0.0,1.0,-0.0028084637597203255,0.000413740403018892,0.0014964239671826363,1.2184696791468346e-07,0.0,0.0,0.0,1.2184696791468346e-07,0.0,0.0,0.0,1.2184696791468346e-07,1.4285131692886353,-0.6373499631881702,9.68393325805664,8.999999999999999e-08,0.0,0.0,0.0,8.999999999999999e-08,0.0,0.0,0.0,8.999999999999999e-08
1676104292.283142,7429,1676104292,275689792,base_link,0.03325768171615274,0.073206848665897,0.016586765790916887,-0.9966241467605519,1.0,0.0,0.0,0.0,1.0,0.0,0.0,0.0,1.0,2.0086299628019333e-06,-0.0014123775763437152,0.0004405768413562329,1.2184696791468346e-07,0.0,0.0,0.0,1.2184696791468346e-07,0.0,0.0,0.0,1.2184696791468346e-07,1.4293485879898071,-0.6183217167854297,9.6842622756958,8.999999999999999e-08,0.0,0.0,0.0,8.999999999999999e-08,0.0,0.0,0.0,8.999999999999999e-08
1676104292.3028734,7430,1676104292,300689792,base_link,0.033264875656357946,0.07321301527666975,0.01657976941406411,-0.9966235567046727,1.0,0.0,0.0,0.0,1.0,0.0,0.0,0.0,1.0,0.00036107050254940987,0.0008002135436981916,0.0002272902347613125,1.2184696791468346e-07,0.0,0.0,0.0,1.2184696791468346e-07,0.0,0.0,0.0,1.2184696791468346e-07,1.4606902599334717,-0.6435194015502917,9.68173599243164,8.999999999999999e-08,0.0,0.0,0.0,8.999999999999999e-08,0.0,0.0,0.0,8.999999999999999e-08
1676104292.3256142,7431,1676104292,320694912,base_link,0.03326622040424325,0.07321674922403,0.01658158172855003,-0.9966231773830361,1.0,0.0,0.0,0.0,1.0,0.0,0.0,0.0,1.0,0.0024374902714043856,-0.0026057420764118433,0.0005226858193054799,1.2184696791468346e-07,0.0,0.0,0.0,1.2184696791468346e-07,0.0,0.0,0.0,1.2184696791468346e-07,1.442901372909546,-0.6315113902091968,9.675102233886719,8.999999999999999e-08,0.0,0.0,0.0,8.999999999999999e-08,0.0,0.0,0.0,8.999999999999999e-08
1676104292.3431885,7432,1676104292,335694912,base_link,0.03326415389157719,0.07321754079452861,0.016583436189884518,-0.9966231773830361,1.0,0.0,0.0,0.0,1.0,0.0,0.0,0.0,1.0,0.0042838770896196365,0.0005786675028502942,0.0006661277730017899,1.2184696791468346e-07,0.0,0.0,0.0,1.2184696791468346e-07,0.0,0.0,0.0,1.2184696791468346e-07,1.4422439336776733,-0.6316747665405261,9.674392700195312,8.999999999999999e-08,0.0,0.0,0.0,8.999999999999999e-08,0.0,0.0,0.0,8.999999999999999e-08
1676104292.3632593,7433,1676104292,360694912,base_link,0.03326494414498678,0.07321600243455795,0.016578800036548356,-0.9966233459704302,1.0,0.0,0.0,0.0,1.0,0.0,0.0,0.0,1.0,-0.0024258773773908615,-0.0003387556644156576,-0.000290986499749124,1.2184696791468346e-07,0.0,0.0,0.0,1.2184696791468346e-07,0.0,0.0,0.0,1.2184696791468346e-07,1.442605972290039,-0.6306901574134814,9.675891876220703,8.999999999999999e-08,0.0,0.0,0.0,8.999999999999999e-08,0.0,0.0,0.0,8.999999999999999e-08
1676104292.3853757,7434,1676104292,379694912,base_link,0.03326188718138072,0.07320938669643076,0.016583562630430048,-0.9966238938794608,1.0,0.0,0.0,0.0,1.0,0.0,0.0,0.0,1.0,0.0013823085464537144,0.0029580844566226006,0.0010125510161742564,1.2184696791468346e-07,0.0,0.0,0.0,1.2184696791468346e-07,0.0,0.0,0.0,1.2184696791468346e-07,1.4166659116744995,-0.6507195234298694,9.685070991516113,8.999999999999999e-08,0.0,0.0,0.0,8.999999999999999e-08,0.0,0.0,0.0,8.999999999999999e-08
1676104292.4020085,7435,1676104292,394694912,base_link,0.03326560795785082,0.0732120300940858,0.016577451337396003,-0.9966235988515213,1.0,0.0,0.0,0.0,1.0,0.0,0.0,0.0,1.0,-0.0009234251920133829,0.0014012920437380672,-0.0008828880963847043,1.2184696791468346e-07,0.0,0.0,0.0,1.2184696791468346e-07,0.0,0.0,0.0,1.2184696791468346e-07,1.4485671520233154,-0.6393469572067249,9.687485694885254,8.999999999999999e-08,0.0,0.0,0.0,8.999999999999999e-08,0.0,0.0,0.0,8.999999999999999e-08
1676104292.4231637,7436,1676104292,419699776,base_link,0.033266900022175486,0.07320377326304471,0.016583478336733026,-0.9966240624668549,1.0,0.0,0.0,0.0,1.0,0.0,0.0,0.0,1.0,-0.0028025333303958178,-0.00046105816727504145,-0.0007859987672418355,1.2184696791468346e-07,0.0,0.0,0.0,1.2184696791468346e-07,0.0,0.0,0.0,1.2184696791468346e-07,1.4364969730377197,-0.6434432268142688,9.673484802246094,8.999999999999999e-08,0.0,0.0,0.0,8.999999999999999e-08,0.0,0.0,0.0,8.999999999999999e-08
1676104292.4446313,7437,1676104292,439699776,base_link,0.033272984973429245,0.07320234553855141,0.016581455288004497,-0.9966239781731578,1.0,0.0,0.0,0.0,1.0,0.0,0.0,0.0,1.0,-0.0033034305088222027,0.0004253564402461052,-0.0001688470365479589,1.2184696791468346e-07,0.0,0.0,0.0,1.2184696791468346e-07,0.0,0.0,0.0,1.2184696791468346e-07,1.431924819946289,-0.6237039566040027,9.684303283691406,8.999999999999999e-08,0.0,0.0,0.0,8.999999999999999e-08,0.0,0.0,0.0,8.999999999999999e-08
1676104292.4617682,7438,1676104292,454699776,base_link,0.03326348481035708,0.07320416443848246,0.016578505008608777,-0.9966242310542489,1.0,0.0,0.0,0.0,1.0,0.0,0.0,0.0,1.0,-0.003186639863997698,-0.003094445448368788,-0.002098223194479942,1.2184696791468346e-07,0.0,0.0,0.0,1.2184696791468346e-07,0.0,0.0,0.0,1.2184696791468346e-07,1.4439184665679932,-0.6168526411056506,9.670714378356934,8.999999999999999e-08,0.0,0.0,0.0,8.999999999999999e-08,0.0,0.0,0.0,8.999999999999999e-08
1676104292.4828444,7439,1676104292,479699776,base_link,0.033269336636855024,0.07321379104210014,0.01658322545564196,-0.9966233038235817,1.0,0.0,0.0,0.0,1.0,0.0,0.0,0.0,1.0,0.003224751679226756,0.001712301163934171,-0.0011258121812716129,1.2184696791468346e-07,0.0,0.0,0.0,1.2184696791468346e-07,0.0,0.0,0.0,1.2184696791468346e-07,1.4385654926300049,-0.6152058243751514,9.6611967086792,8.999999999999999e-08,0.0,0.0,0.0,8.999999999999999e-08,0.0,0.0,0.0,8.999999999999999e-08
1676104292.5061462,7440,1676104292,499699776,base_link,0.033275421588108776,0.07321321679128918,0.016586723644068383,-0.996623093089339,1.0,0.0,0.0,0.0,1.0,0.0,0.0,0.0,1.0,-0.0018376567168161273,-0.0007158039370551705,-0.0001357263536192476,1.2184696791468346e-07,0.0,0.0,0.0,1.2184696791468346e-07,0.0,0.0,0.0,1.2184696791468346e-07,1.4448912143707275,-0.6367270350456226,9.697953224182129,8.999999999999999e-08,0.0,0.0,0.0,8.999999999999999e-08,0.0,0.0,0.0,8.999999999999999e-08
1676104292.5229433,7441,1676104292,514704640,base_link,0.033271561200202984,0.07321419012007198,0.016586723644068383,-0.996623093089339,1.0,0.0,0.0,0.0,1.0,0.0,0.0,0.0,1.0,0.0013959072530269623,-0.0008259322494268417,0.00023485938436351727,1.2184696791468346e-07,0.0,0.0,0.0,1.2184696791468346e-07,0.0,0.0,0.0,1.2184696791468346e-07,1.438757300376892,-0.6485315561294543,9.688658714294434,8.999999999999999e-08,0.0,0.0,0.0,8.999999999999999e-08,0.0,0.0,0.0,8.999999999999999e-08
1676104292.5438886,7442,1676104292,539704640,base_link,0.03327196949779793,0.07321700605638812,0.016586807937765406,-0.996622924501945,1.0,0.0,0.0,0.0,1.0,0.0,0.0,0.0,1.0,0.0020590650383383036,0.0004229763289913534,-0.0009863752638921142,1.2184696791468346e-07,0.0,0.0,0.0,1.2184696791468346e-07,0.0,0.0,0.0,1.2184696791468346e-07,1.4692580699920654,-0.6299762725830066,9.683332443237305,8.999999999999999e-08,0.0,0.0,0.0,8.999999999999999e-08,0.0,0.0,0.0,8.999999999999999e-08
1676104292.5638068,7443,1676104292,559704640,base_link,0.03327603930285727,0.0732146537354056,0.016588156636917758,-0.996622924501945,1.0,0.0,0.0,0.0,1.0,0.0,0.0,0.0,1.0,0.0026862488593906164,0.0022821631282567974,-0.0020943866111338143,1.2184696791468346e-07,0.0,0.0,0.0,1.2184696791468346e-07,0.0,0.0,0.0,1.2184696791468346e-07,1.4323437213897705,-0.6341381669044482,9.664613723754883,8.999999999999999e-08,0.0,0.0,0.0,8.999999999999999e-08,0.0,0.0,0.0,8.999999999999999e-08
1676104292.5828424,7444,1676104292,579704640,base_link,0.03328594776352438,0.07321460763729004,0.01658575426655263,-0.9966226294740055,1.0,0.0,0.0,0.0,1.0,0.0,0.0,0.0,1.0,-0.001736452803015709,-0.000561732449568808,0.0013118055649101734,1.2184696791468346e-07,0.0,0.0,0.0,1.2184696791468346e-07,0.0,0.0,0.0,1.2184696791468346e-07,1.4475867748260498,-0.6213108301162708,9.67870044708252,8.999999999999999e-08,0.0,0.0,0.0,8.999999999999999e-08,0.0,0.0,0.0,8.999999999999999e-08
1676104292.603078,7445,1676104292,599704640,base_link,0.03328672748022182,0.07321241600116749,0.016590053245100756,-0.9966227137677025,1.0,0.0,0.0,0.0,1.0,0.0,0.0,0.0,1.0,-0.0011501973494887352,-0.00047152157640084624,4.9030844820663394e-05,1.2184696791468346e-07,0.0,0.0,0.0,1.2184696791468346e-07,0.0,0.0,0.0,1.2184696791468346e-07,1.4280099868774414,-0.6479232907295215,9.695977210998535,8.999999999999999e-08,0.0,0.0,0.0,8.999999999999999e-08,0.0,0.0,0.0,8.999999999999999e-08
1676104292.6246943,7446,1676104292,619708992,base_link,0.03328455823461253,0.07321339459830634,0.016586681497219872,-0.9966227137677025,1.0,0.0,0.0,0.0,1.0,0.0,0.0,0.0,1.0,0.0008032133337110281,0.0016575314803048968,0.000611038878560066,1.2184696791468346e-07,0.0,0.0,0.0,1.2184696791468346e-07,0.0,0.0,0.0,1.2184696791468346e-07,1.4510163068771362,-0.6293083429336536,9.685587882995605,8.999999999999999e-08,0.0,0.0,0.0,8.999999999999999e-08,0.0,0.0,0.0,8.999999999999999e-08
1676104292.6426897,7447,1676104292,639708992,base_link,0.03328447657509355,0.07321267546770362,0.016580190882549167,-0.9966228823550966,1.0,0.0,0.0,0.0,1.0,0.0,0.0,0.0,1.0,0.0035742998588830233,0.0007042478537186982,0.0013958279741927981,1.2184696791468346e-07,0.0,0.0,0.0,1.2184696791468346e-07,0.0,0.0,0.0,1.2184696791468346e-07,1.4296197891235352,-0.6223514080047595,9.675006866455078,8.999999999999999e-08,0.0,0.0,0.0,8.999999999999999e-08,0.0,0.0,0.0,8.999999999999999e-08
1676104292.6628826,7448,1676104292,659708992,base_link,0.03328154868621105,0.07321078807914375,0.016579895854609644,-0.9966231773830362,1.0,0.0,0.0,0.0,1.0,0.0,0.0,0.0,1.0,0.0009627833496779203,2.8116744942963266e-05,0.0011515638325363398,1.2184696791468346e-07,0.0,0.0,0.0,1.2184696791468346e-07,0.0,0.0,0.0,1.2184696791468346e-07,1.440380573272705,-0.6433985233306873,9.671579360961914,8.999999999999999e-08,0.0,0.0,0.0,8.999999999999999e-08,0.0,0.0,0.0,8.999999999999999e-08
1676104292.6844895,7449,1676104292,679708992,base_link,0.033277677761593134,0.07321215126627527,0.016583941952066653,-0.996623093089339,1.0,0.0,0.0,0.0,1.0,0.0,0.0,0.0,1.0,-0.0010502409422770143,-0.0007155737839639187,-0.0003746441507246344,1.2184696791468346e-07,0.0,0.0,0.0,1.2184696791468346e-07,0.0,0.0,0.0,1.2184696791468346e-07,1.4596081972122192,-0.6352378129959094,9.67809772491455,8.999999999999999e-08,0.0,0.0,0.0,8.999999999999999e-08,0.0,0.0,0.0,8.999999999999999e-08
1676104292.7040863,7450,1676104292,699708992,base_link,0.033281431465288634,0.07321488817725044,0.016577409190547492,-0.9966228823550966,1.0,0.0,0.0,0.0,1.0,0.0,0.0,0.0,1.0,-0.0011708156671375036,0.0011401291703805327,0.00030696028261445446,1.2184696791468346e-07,0.0,0.0,0.0,1.2184696791468346e-07,0.0,0.0,0.0,1.2184696791468346e-07,1.4344128370285034,-0.6496187448501575,9.69674301147461,8.999999999999999e-08,0.0,0.0,0.0,8.999999999999999e-08,0.0,0.0,0.0,8.999999999999999e-08
1676104292.7229123,7451,1676104292,719713856,base_link,0.03328324641395263,0.07321750918439222,0.01657837856806325,-0.996622671620854,1.0,0.0,0.0,0.0,1.0,0.0,0.0,0.0,1.0,0.0021219828631728888,0.0015111578395590186,0.0006073110271245239,1.2184696791468346e-07,0.0,0.0,0.0,1.2184696791468346e-07,0.0,0.0,0.0,1.2184696791468346e-07,1.4462028741836548,-0.6475827097892749,9.69675064086914,8.999999999999999e-08,0.0,0.0,0.0,8.999999999999999e-08,0.0,0.0,0.0,8.999999999999999e-08
1676104292.7442222,7452,1676104292,739713856,base_link,0.0332864364035493,0.07321399255671959,0.016574711792242788,-0.9966227980613995,1.0,0.0,0.0,0.0,1.0,0.0,0.0,0.0,1.0,0.001612470019608736,0.0003206817200407386,0.00020080766989849505,1.2184696791468346e-07,0.0,0.0,0.0,1.2184696791468346e-07,0.0,0.0,0.0,1.2184696791468346e-07,1.4323457479476929,-0.6289771199226367,9.666571617126465,8.999999999999999e-08,0.0,0.0,0.0,8.999999999999999e-08,0.0,0.0,0.0,8.999999999999999e-08
1676104292.7635143,7453,1676104292,759713856,base_link,0.033294331035110994,0.07321537023183029,0.01657555472921301,-0.9966224608866114,1.0,0.0,0.0,0.0,1.0,0.0,0.0,0.0,1.0,-0.002433286514133215,-0.0012757881777361035,0.0008133619558066131,1.2184696791468346e-07,0.0,0.0,0.0,1.2184696791468346e-07,0.0,0.0,0.0,1.2184696791468346e-07,1.4233897924423218,-0.621756851673125,9.672677040100098,8.999999999999999e-08,0.0,0.0,0.0,8.999999999999999e-08,0.0,0.0,0.0,8.999999999999999e-08
1676104292.7849152,7454,1676104292,779713856,base_link,0.03329230271802641,0.07321142423313846,0.016580738791579813,-0.996622755914551,1.0,0.0,0.0,0.0,1.0,0.0,0.0,0.0,1.0,0.001274365233257413,0.0013959711650386453,-0.0007978696376085284,1.2184696791468346e-07,0.0,0.0,0.0,1.2184696791468346e-07,0.0,0.0,0.0,1.2184696791468346e-07,1.4413141012191772,-0.6631332039833057,9.680800437927246,8.999999999999999e-08,0.0,0.0,0.0,8.999999999999999e-08,0.0,0.0,0.0,8.999999999999999e-08
1676104292.804706,7455,1676104292,799713856,base_link,0.033293514439921096,0.07321164550409313,0.01657606049139514,-0.9966227137677025,1.0,0.0,0.0,0.0,1.0,0.0,0.0,0.0,1.0,0.002381479600444436,0.0007015737937763334,0.0006667623529210686,1.2184696791468346e-07,0.0,0.0,0.0,1.2184696791468346e-07,0.0,0.0,0.0,1.2184696791468346e-07,1.4453128576278687,-0.6550962924957263,9.680094718933105,8.999999999999999e-08,0.0,0.0,0.0,8.999999999999999e-08,0.0,0.0,0.0,8.999999999999999e-08
1676104292.8216262,7456,1676104292,814719488,base_link,0.033300251350237765,0.07321973374774018,0.016575048967030877,-0.9966219551244293,1.0,0.0,0.0,0.0,1.0,0.0,0.0,0.0,1.0,0.0008997074328362942,0.0010767359053716063,2.581308945082115e-05,1.2184696791468346e-07,0.0,0.0,0.0,1.2184696791468346e-07,0.0,0.0,0.0,1.2184696791468346e-07,1.450443983078003,-0.6208761334419238,9.670892715454102,8.999999999999999e-08,0.0,0.0,0.0,8.999999999999999e-08,0.0,0.0,0.0,8.999999999999999e-08
1676104292.8425798,7457,1676104292,839719488,base_link,0.03329367907604809,0.07321497905639254,0.0165818346096411,-0.9966224187397629,1.0,0.0,0.0,0.0,1.0,0.0,0.0,0.0,1.0,0.0004691784270107746,0.0003814147785305974,-0.0021887978073209524,1.2184696791468346e-07,0.0,0.0,0.0,1.2184696791468346e-07,0.0,0.0,0.0,1.2184696791468346e-07,1.4367879629135132,-0.6155637502670276,9.66930103302002,8.999999999999999e-08,0.0,0.0,0.0,8.999999999999999e-08,0.0,0.0,0.0,8.999999999999999e-08
1676104292.862945,7458,1676104292,859719488,base_link,0.03328935112154163,0.07321045617271173,0.016578968623942404,-0.9966229245019451,1.0,0.0,0.0,0.0,1.0,0.0,0.0,0.0,1.0,-0.0005265615181997418,0.0008050004253163934,-0.00021255825413391005,1.2184696791468346e-07,0.0,0.0,0.0,1.2184696791468346e-07,0.0,0.0,0.0,1.2184696791468346e-07,1.4300096035003662,-0.6440462470054614,9.665984153747559,8.999999999999999e-08,0.0,0.0,0.0,8.999999999999999e-08,0.0,0.0,0.0,8.999999999999999e-08
1676104292.8817692,7459,1676104292,874719488,base_link,0.03328536297600129,0.07321188389720502,0.016576734840971316,-0.9966229666487936,1.0,0.0,0.0,0.0,1.0,0.0,0.0,0.0,1.0,-0.003017835784703493,-0.0004026583628728985,0.0003383112780284137,1.2184696791468346e-07,0.0,0.0,0.0,1.2184696791468346e-07,0.0,0.0,0.0,1.2184696791468346e-07,1.4399833679199219,-0.6329277157783496,9.679272651672363,8.999999999999999e-08,0.0,0.0,0.0,8.999999999999999e-08,0.0,0.0,0.0,8.999999999999999e-08
1676104292.9034038,7460,1676104292,899719488,base_link,0.03329562968488074,0.07321163760155905,0.016575849757152587,-0.996622671620854,1.0,0.0,0.0,0.0,1.0,0.0,0.0,0.0,1.0,0.001681874506175518,-0.0010111818555742502,0.000310990057187155,1.2184696791468346e-07,0.0,0.0,0.0,1.2184696791468346e-07,0.0,0.0,0.0,1.2184696791468346e-07,1.4355263710021973,-0.6412479281425464,9.68907642364502,8.999999999999999e-08,0.0,0.0,0.0,8.999999999999999e-08,0.0,0.0,0.0,8.999999999999999e-08
1676104292.9239254,7461,1676104292,919724096,base_link,0.03329531094933887,0.0732127149803741,0.016579474386124535,-0.996622587327157,1.0,0.0,0.0,0.0,1.0,0.0,0.0,0.0,1.0,-0.0016091384459286928,-0.001022533397190273,-0.0011794029269367454,1.2184696791468346e-07,0.0,0.0,0.0,1.2184696791468346e-07,0.0,0.0,0.0,1.2184696791468346e-07,1.4524046182632446,-0.6468272805213916,9.689957618713379,8.999999999999999e-08,0.0,0.0,0.0,8.999999999999999e-08,0.0,0.0,0.0,8.999999999999999e-08
1676104292.9424255,7462,1676104292,934724096,base_link,0.03328768632102545,0.07321093032475748,0.016577788512184093,-0.9966229245019451,1.0,0.0,0.0,0.0,1.0,0.0,0.0,0.0,1.0,-7.303943857550621e-05,-0.0002655499847605824,0.0004458782204892487,1.2184696791468346e-07,0.0,0.0,0.0,1.2184696791468346e-07,0.0,0.0,0.0,1.2184696791468346e-07,1.4416139125823975,-0.629714250564574,9.702865600585938,8.999999999999999e-08,0.0,0.0,0.0,8.999999999999999e-08,0.0,0.0,0.0,8.999999999999999e-08
1676104292.9616961,7463,1676104292,959724096,base_link,0.03329376600392315,0.07320763233386149,0.016575512582364497,-0.9966230087956421,1.0,0.0,0.0,0.0,1.0,0.0,0.0,0.0,1.0,0.002047134330496192,0.00010447727981954839,0.0020595325622707605,1.2184696791468346e-07,0.0,0.0,0.0,1.2184696791468346e-07,0.0,0.0,0.0,1.2184696791468346e-07,1.442527413368225,-0.6411857008934009,9.689352035522461,8.999999999999999e-08,0.0,0.0,0.0,8.999999999999999e-08,0.0,0.0,0.0,8.999999999999999e-08
1676104292.983429,7464,1676104292,979724096,base_link,0.033297423560120484,0.07321126618245655,0.016578083540123672,-0.9966226294740055,1.0,0.0,0.0,0.0,1.0,0.0,0.0,0.0,1.0,0.0022246900480240583,-0.001021600444801152,-0.0009566600201651453,1.2184696791468346e-07,0.0,0.0,0.0,1.2184696791468346e-07,0.0,0.0,0.0,1.2184696791468346e-07,1.4257808923721313,-0.6233416199684131,9.691657066345215,8.999999999999999e-08,0.0,0.0,0.0,8.999999999999999e-08,0.0,0.0,0.0,8.999999999999999e-08
1676104293.0017736,7465,1676104292,994724096,base_link,0.03329758819624748,0.07320945781923761,0.01657521755442492,-0.9966227980613995,1.0,0.0,0.0,0.0,1.0,0.0,0.0,0.0,1.0,0.0026921473909169436,-1.940981019288306e-05,-0.00035003124503418803,1.2184696791468346e-07,0.0,0.0,0.0,1.2184696791468346e-07,0.0,0.0,0.0,1.2184696791468346e-07,1.4554725885391235,-0.6139931082725513,9.675834655761719,8.999999999999999e-08,0.0,0.0,0.0,8.999999999999999e-08,0.0,0.0,0.0,8.999999999999999e-08
1676104293.0221736,7466,1676104293,19728704,base_link,0.03329160992920401,0.07321310747290086,0.016574332470606187,-0.996622755914551,1.0,0.0,0.0,0.0,1.0,0.0,0.0,0.0,1.0,-0.0009442073060199618,0.00033022544812411075,0.000558550818823278,1.2184696791468346e-07,0.0,0.0,0.0,1.2184696791468346e-07,0.0,0.0,0.0,1.2184696791468346e-07,1.4333851337432861,-0.6168773174285876,9.694091796875,8.999999999999999e-08,0.0,0.0,0.0,8.999999999999999e-08,0.0,0.0,0.0,8.999999999999999e-08
1676104293.043786,7467,1676104293,39728704,base_link,0.033289427512704556,0.07321554277049137,0.016572646596665744,-0.9966226716208539,1.0,0.0,0.0,0.0,1.0,0.0,0.0,0.0,1.0,0.0026014430914074183,-1.200672704726446e-05,0.0009354234207421541,1.2184696791468346e-07,0.0,0.0,0.0,1.2184696791468346e-07,0.0,0.0,0.0,1.2184696791468346e-07,1.4314162731170654,-0.6455239653587329,9.675398826599121,8.999999999999999e-08,0.0,0.0,0.0,8.999999999999999e-08,0.0,0.0,0.0,8.999999999999999e-08
1676104293.065144,7468,1676104293,59728704,base_link,0.03329114763095941,0.07321550852617696,0.016571424338058926,-0.9966226294740055,1.0,0.0,0.0,0.0,1.0,0.0,0.0,0.0,1.0,0.0016127645503729582,-0.0007281844154931603,0.0013666534796357155,1.2184696791468346e-07,0.0,0.0,0.0,1.2184696791468346e-07,0.0,0.0,0.0,1.2184696791468346e-07,1.4347988367080688,-0.6290323138236987,9.6663818359375,8.999999999999999e-08,0.0,0.0,0.0,8.999999999999999e-08,0.0,0.0,0.0,8.999999999999999e-08
1676104293.0832574,7469,1676104293,79728704,base_link,0.033303237191036957,0.07321795962883568,0.016573700267878525,-0.9966220394181263,1.0,0.0,0.0,0.0,1.0,0.0,0.0,0.0,1.0,-0.0014516373630613089,-0.002146621700376272,-4.468622501008186e-05,1.2184696791468346e-07,0.0,0.0,0.0,1.2184696791468346e-07,0.0,0.0,0.0,1.2184696791468346e-07,1.432883620262146,-0.6237965822219836,9.685420989990234,8.999999999999999e-08,0.0,0.0,0.0,8.999999999999999e-08,0.0,0.0,0.0,8.999999999999999e-08
1676104293.1031013,7470,1676104293,99728704,base_link,0.03329719175245367,0.07322201362882681,0.016574753939091302,-0.9966219129775808,1.0,0.0,0.0,0.0,1.0,0.0,0.0,0.0,1.0,-0.002218114212155342,-0.0006256281048990786,0.00043723292765207594,1.2184696791468346e-07,0.0,0.0,0.0,1.2184696791468346e-07,0.0,0.0,0.0,1.2184696791468346e-07,1.4479092359542847,-0.6130746006965625,9.687636375427246,8.999999999999999e-08,0.0,0.0,0.0,8.999999999999999e-08,0.0,0.0,0.0,8.999999999999999e-08
1676104293.1216764,7471,1676104293,119731520,base_link,0.03329049435480749,0.07322697246897193,0.01657306806515086,-0.9966218286838837,1.0,0.0,0.0,0.0,1.0,0.0,0.0,0.0,1.0,0.0012816404923796654,-0.0007963154930621384,0.0005129835335537792,1.2184696791468346e-07,0.0,0.0,0.0,1.2184696791468346e-07,0.0,0.0,0.0,1.2184696791468346e-07,1.4297375679016113,-0.6348015069961536,9.66974925994873,8.999999999999999e-08,0.0,0.0,0.0,8.999999999999999e-08,0.0,0.0,0.0,8.999999999999999e-08
1676104293.1433673,7472,1676104293,139731520,base_link,0.03329077884603494,0.07323482231950708,0.01656948558302742,-0.9966212807748531,1.0,0.0,0.0,0.0,1.0,0.0,0.0,0.0,1.0,0.0021989059168845415,-0.000642621424049139,0.0002716189774218947,1.2184696791468346e-07,0.0,0.0,0.0,1.2184696791468346e-07,0.0,0.0,0.0,1.2184696791468346e-07,1.4405517578125,-0.6373938918113696,9.688443183898926,8.999999999999999e-08,0.0,0.0,0.0,8.999999999999999e-08,0.0,0.0,0.0,8.999999999999999e-08
1676104293.16201,7473,1676104293,154731520,base_link,0.03329463396558467,0.07323590891794525,0.016572056540786598,-0.9966209857469135,1.0,0.0,0.0,0.0,1.0,0.0,0.0,0.0,1.0,0.0016373905818909407,-0.0004349827650003136,-0.0004732059314846992,1.2184696791468346e-07,0.0,0.0,0.0,1.2184696791468346e-07,0.0,0.0,0.0,1.2184696791468346e-07,1.440808653831482,-0.6427667140960681,9.695350646972656,8.999999999999999e-08,0.0,0.0,0.0,8.999999999999999e-08,0.0,0.0,0.0,8.999999999999999e-08
1676104293.1832838,7474,1676104293,179731520,base_link,0.03330446076673279,0.07323608145660634,0.01657534399497046,-0.9966205642784285,1.0,0.0,0.0,0.0,1.0,0.0,0.0,0.0,1.0,-0.003066267818212509,0.0024953833781182766,-0.0007372351828962568,1.2184696791468346e-07,0.0,0.0,0.0,1.2184696791468346e-07,0.0,0.0,0.0,1.2184696791468346e-07,1.433255910873413,-0.6379488706588733,9.669243812561035,8.999999999999999e-08,0.0,0.0,0.0,8.999999999999999e-08,0.0,0.0,0.0,8.999999999999999e-08
1676104293.2045388,7475,1676104293,199731520,base_link,0.03330673801364139,0.07323377259956136,0.016578083540123623,-0.996620606425277,1.0,0.0,0.0,0.0,1.0,0.0,0.0,0.0,1.0,0.001783493673428893,0.0017437824280932548,0.0011239533778280018,1.2184696791468346e-07,0.0,0.0,0.0,1.2184696791468346e-07,0.0,0.0,0.0,1.2184696791468346e-07,1.4354350566864014,-0.6337668895721423,9.659119606018066,8.999999999999999e-08,0.0,0.0,0.0,8.999999999999999e-08,0.0,0.0,0.0,8.999999999999999e-08
1676104293.2239196,7476,1676104293,219735872,base_link,0.03330840676542462,0.07322695139554768,0.016576060491395147,-0.9966211121874591,1.0,0.0,0.0,0.0,1.0,0.0,0.0,0.0,1.0,-0.00032849807757884264,0.0013910263078287244,-0.0003282045363448562,1.2184696791468346e-07,0.0,0.0,0.0,1.2184696791468346e-07,0.0,0.0,0.0,1.2184696791468346e-07,1.4672911167144775,-0.6325418353080737,9.66543197631836,8.999999999999999e-08,0.0,0.0,0.0,8.999999999999999e-08,0.0,0.0,0.0,8.999999999999999e-08
1676104293.2424583,7477,1676104293,239735872,base_link,0.03331387268484088,0.07322873473407529,0.016573953148969596,-0.996620859306368,1.0,0.0,0.0,0.0,1.0,0.0,0.0,0.0,1.0,-0.0007692138897255063,-0.0002497024252079427,3.778861719183627e-05,1.2184696791468346e-07,0.0,0.0,0.0,1.2184696791468346e-07,0.0,0.0,0.0,1.2184696791468346e-07,1.4582937955856323,-0.6385432481765735,9.678792953491211,8.999999999999999e-08,0.0,0.0,0.0,8.999999999999999e-08,0.0,0.0,0.0,8.999999999999999e-08
1676104293.2625997,7478,1676104293,259735872,base_link,0.03331816376085489,0.07322292637151488,0.016572983771453838,-0.9966211543343076,1.0,0.0,0.0,0.0,1.0,0.0,0.0,0.0,1.0,-0.0026648673228919506,0.00017181667499244208,-0.0004971788730472326,1.2184696791468346e-07,0.0,0.0,0.0,1.2184696791468346e-07,0.0,0.0,0.0,1.2184696791468346e-07,1.4650602340698242,-0.6403284668922412,9.680854797363281,8.999999999999999e-08,0.0,0.0,0.0,8.999999999999999e-08,0.0,0.0,0.0,8.999999999999999e-08
1676104293.2859502,7479,1676104293,279735872,base_link,0.0333068789421661,0.0732222520219387,0.01657302591830235,-0.9966216179496412,1.0,0.0,0.0,0.0,1.0,0.0,0.0,0.0,1.0,0.0008626715280115604,-0.0006690527079626918,-0.00011336745228618375,1.2184696791468346e-07,0.0,0.0,0.0,1.2184696791468346e-07,0.0,0.0,0.0,1.2184696791468346e-07,1.4440490007400513,-0.6302487850189197,9.677552223205566,8.999999999999999e-08,0.0,0.0,0.0,8.999999999999999e-08,0.0,0.0,0.0,8.999999999999999e-08
1676104293.3021598,7480,1676104293,299735872,base_link,0.03330890330798364,0.07321908969121138,0.016576566253577278,-0.9966217022433382,1.0,0.0,0.0,0.0,1.0,0.0,0.0,0.0,1.0,0.002088581444695592,-0.0004931812873110176,-0.0005296110175549983,1.2184696791468346e-07,0.0,0.0,0.0,1.2184696791468346e-07,0.0,0.0,0.0,1.2184696791468346e-07,1.443809986114502,-0.6339363455772388,9.6787691116333,8.999999999999999e-08,0.0,0.0,0.0,8.999999999999999e-08,0.0,0.0,0.0,8.999999999999999e-08
1676104293.3228352,7481,1676104293,319740480,base_link,0.03331425859192255,0.07322224807067167,0.016572182981332128,-0.9966213650685501,1.0,0.0,0.0,0.0,1.0,0.0,0.0,0.0,1.0,0.0004377700388431549,-0.0004008864052593706,0.0015592984855175018,1.2184696791468346e-07,0.0,0.0,0.0,1.2184696791468346e-07,0.0,0.0,0.0,1.2184696791468346e-07,1.437107801437378,-0.6268103122711169,9.696621894836426,8.999999999999999e-08,0.0,0.0,0.0,8.999999999999999e-08,0.0,0.0,0.0,8.999999999999999e-08
1676104293.3449073,7482,1676104293,339740480,base_link,0.03330622039765812,0.07322201494591583,0.01658280398715686,-0.9966214493622472,1.0,0.0,0.0,0.0,1.0,0.0,0.0,0.0,1.0,0.0014454727061092854,-0.0007785304915159942,-0.0011531348573043942,1.2184696791468346e-07,0.0,0.0,0.0,1.2184696791468346e-07,0.0,0.0,0.0,1.2184696791468346e-07,1.4524459838867188,-0.6298372745513904,9.685222625732422,8.999999999999999e-08,0.0,0.0,0.0,8.999999999999999e-08,0.0,0.0,0.0,8.999999999999999e-08
1676104293.3623981,7483,1676104293,359740480,base_link,0.03330803271214409,0.07322590299269097,0.016591781265889716,-0.9966209857469136,1.0,0.0,0.0,0.0,1.0,0.0,0.0,0.0,1.0,0.0015006617177277803,-0.0006353511125780644,-0.002098457422107458,1.2184696791468346e-07,0.0,0.0,0.0,1.2184696791468346e-07,0.0,0.0,0.0,1.2184696791468346e-07,1.4278831481933594,-0.6522014737129199,9.694575309753418,8.999999999999999e-08,0.0,0.0,0.0,8.999999999999999e-08,0.0,0.0,0.0,8.999999999999999e-08
1676104293.3832695,7484,1676104293,379740480,base_link,0.033310279666005325,0.07322655363466485,0.016596164538134815,-0.9966207328658225,1.0,0.0,0.0,0.0,1.0,0.0,0.0,0.0,1.0,0.001952901715412736,0.0007054479792714119,0.00037791914655826975,1.2184696791468346e-07,0.0,0.0,0.0,1.2184696791468346e-07,0.0,0.0,0.0,1.2184696791468346e-07,1.4426828622817993,-0.6248774528503406,9.680577278137207,8.999999999999999e-08,0.0,0.0,0.0,8.999999999999999e-08,0.0,0.0,0.0,8.999999999999999e-08
1676104293.4043472,7485,1676104293,399740480,base_link,0.033317575022064755,0.0732288677600659,0.016595448041710127,-0.9966203535441859,1.0,0.0,0.0,0.0,1.0,0.0,0.0,0.0,1.0,-0.0017165056196972728,0.0012573605636134744,-0.0005783573724329473,1.2184696791468346e-07,0.0,0.0,0.0,1.2184696791468346e-07,0.0,0.0,0.0,1.2184696791468346e-07,1.431345820426941,-0.6236549019813525,9.671838760375977,8.999999999999999e-08,0.0,0.0,0.0,8.999999999999999e-08,0.0,0.0,0.0,8.999999999999999e-08
1676104293.42212,7486,1676104293,419745344,base_link,0.03332291976929154,0.07322921283738809,0.01659637527237737,-0.9966201006630948,1.0,0.0,0.0,0.0,1.0,0.0,0.0,0.0,1.0,-0.0021658416371792555,-0.00018847966566681867,-0.0005306068924255669,1.2184696791468346e-07,0.0,0.0,0.0,1.2184696791468346e-07,0.0,0.0,0.0,1.2184696791468346e-07,1.4438457489013672,-0.6364754438400256,9.687514305114746,8.999999999999999e-08,0.0,0.0,0.0,8.999999999999999e-08,0.0,0.0,0.0,8.999999999999999e-08
1676104293.4446042,7487,1676104293,439745344,base_link,0.03331991944051318,0.07323014797058942,0.016591191210010566,-0.9966203113973374,1.0,0.0,0.0,0.0,1.0,0.0,0.0,0.0,1.0,-0.0014057602966204286,-0.0010053202277049422,-0.0005147671909071504,1.2184696791468346e-07,0.0,0.0,0.0,1.2184696791468346e-07,0.0,0.0,0.0,1.2184696791468346e-07,1.453987956047058,-0.633202016353606,9.680582046508789,8.999999999999999e-08,0.0,0.0,0.0,8.999999999999999e-08,0.0,0.0,0.0,8.999999999999999e-08
1676104293.465461,7488,1676104293,458745344,base_link,0.033325328725101744,0.07323369489130942,0.016601685775289768,-0.9966196791946097,1.0,0.0,0.0,0.0,1.0,0.0,0.0,0.0,1.0,-0.0003124939976260066,0.0012401422718539834,-0.00035023523378185944,1.2184696791468346e-07,0.0,0.0,0.0,1.2184696791468346e-07,0.0,0.0,0.0,1.2184696791468346e-07,1.4403340816497803,-0.6350052952766406,9.676033020019531,8.999999999999999e-08,0.0,0.0,0.0,8.999999999999999e-08,0.0,0.0,0.0,8.999999999999999e-08
1676104293.4822068,7489,1676104293,478745344,base_link,0.03332624015070079,0.07323611306674273,0.016596375272377374,-0.9966195106072157,1.0,0.0,0.0,0.0,1.0,0.0,0.0,0.0,1.0,-0.0016844227211549878,-0.0017485769931226969,-0.0008606400806456802,1.2184696791468346e-07,0.0,0.0,0.0,1.2184696791468346e-07,0.0,0.0,0.0,1.2184696791468346e-07,1.4398318529129028,-0.6339727640151965,9.672164916992188,8.999999999999999e-08,0.0,0.0,0.0,8.999999999999999e-08,0.0,0.0,0.0,8.999999999999999e-08
1676104293.5059016,7490,1676104293,498745344,base_link,0.033330441664661724,0.0732317956489484,0.01659388860831522,-0.9966197213414583,1.0,0.0,0.0,0.0,1.0,0.0,0.0,0.0,1.0,0.002926368499174714,0.000844421796500683,0.0017559896223247051,1.2184696791468346e-07,0.0,0.0,0.0,1.2184696791468346e-07,0.0,0.0,0.0,1.2184696791468346e-07,1.4542073011398315,-0.6089824438095081,9.674187660217285,8.999999999999999e-08,0.0,0.0,0.0,8.999999999999999e-08,0.0,0.0,0.0,8.999999999999999e-08
1676104293.5226839,7491,1676104293,519749696,base_link,0.0333296975093677,0.07322863068404303,0.016593846461466707,-0.9966200163693978,1.0,0.0,0.0,0.0,1.0,0.0,0.0,0.0,1.0,-0.0006201881915330887,-0.0006409030174836517,-0.0004931406001560389,1.2184696791468346e-07,0.0,0.0,0.0,1.2184696791468346e-07,0.0,0.0,0.0,1.2184696791468346e-07,1.4462071657180786,-0.6197882890701282,9.6779146194458,8.999999999999999e-08,0.0,0.0,0.0,8.999999999999999e-08,0.0,0.0,0.0,8.999999999999999e-08
1676104293.5443513,7492,1676104293,538749696,base_link,0.03333074986349146,0.07323073934355759,0.016595363748013108,-0.9966197634883067,1.0,0.0,0.0,0.0,1.0,0.0,0.0,0.0,1.0,-0.002397233620285988,-3.7896679714322e-05,0.0007251241477206349,1.2184696791468346e-07,0.0,0.0,0.0,1.2184696791468346e-07,0.0,0.0,0.0,1.2184696791468346e-07,1.4447283744812012,-0.6151970028877246,9.700498580932617,8.999999999999999e-08,0.0,0.0,0.0,8.999999999999999e-08,0.0,0.0,0.0,8.999999999999999e-08
1676104293.5619874,7493,1676104293,558749696,base_link,0.03333790297393716,0.07323242653458704,0.01659506872007353,-0.9966193841666702,1.0,0.0,0.0,0.0,1.0,0.0,0.0,0.0,1.0,0.0006482885219156742,-0.0005371497245505453,-0.001310032675974071,1.2184696791468346e-07,0.0,0.0,0.0,1.2184696791468346e-07,0.0,0.0,0.0,1.2184696791468346e-07,1.4501547813415527,-0.6112751960754382,9.677271842956543,8.999999999999999e-08,0.0,0.0,0.0,8.999999999999999e-08,0.0,0.0,0.0,8.999999999999999e-08
1676104293.5843112,7494,1676104293,578749696,base_link,0.03334262605514842,0.07323703898032095,0.01659936769862166,-0.996618878404488,1.0,0.0,0.0,0.0,1.0,0.0,0.0,0.0,1.0,-0.00237379502505064,-0.0012957697035744788,-0.0009228708222508429,1.2184696791468346e-07,0.0,0.0,0.0,1.2184696791468346e-07,0.0,0.0,0.0,1.2184696791468346e-07,1.445168137550354,-0.6221837401390063,9.670234680175781,8.999999999999999e-08,0.0,0.0,0.0,8.999999999999999e-08,0.0,0.0,0.0,8.999999999999999e-08
1676104293.6073172,7495,1676104293,598749696,base_link,0.033345272086981494,0.0732342875813666,0.016602697299654034,-0.9966189205513365,1.0,0.0,0.0,0.0,1.0,0.0,0.0,0.0,1.0,0.0017411380540579557,0.0008701010374352337,0.0012886392651125789,1.2184696791468346e-07,0.0,0.0,0.0,1.2184696791468346e-07,0.0,0.0,0.0,1.2184696791468346e-07,1.4385567903518677,-0.6444182991981494,9.681668281555176,8.999999999999999e-08,0.0,0.0,0.0,8.999999999999999e-08,0.0,0.0,0.0,8.999999999999999e-08
1676104293.6217983,7496,1676104293,618755840,base_link,0.03334158028646974,0.07323366986661811,0.01660547899165571,-0.9966190048450335,1.0,0.0,0.0,0.0,1.0,0.0,0.0,0.0,1.0,0.0035480030346661806,-0.0005594075191766026,-0.001364314928650856,1.2184696791468346e-07,0.0,0.0,0.0,1.2184696791468346e-07,0.0,0.0,0.0,1.2184696791468346e-07,1.4450558423995972,-0.6236329674720752,9.693719863891602,8.999999999999999e-08,0.0,0.0,0.0,8.999999999999999e-08,0.0,0.0,0.0,8.999999999999999e-08
1676104293.6440601,7497,1676104293,638755840,base_link,0.03335362638260976,0.07323222370287859,0.016608808592688085,-0.996618709817094,1.0,0.0,0.0,0.0,1.0,0.0,0.0,0.0,1.0,-0.00026783335488289595,-0.0004008741816505791,-0.0006925767520442605,1.2184696791468346e-07,0.0,0.0,0.0,1.2184696791468346e-07,0.0,0.0,0.0,1.2184696791468346e-07,1.451658844947815,-0.6101637482643115,9.680959701538086,8.999999999999999e-08,0.0,0.0,0.0,8.999999999999999e-08,0.0,0.0,0.0,8.999999999999999e-08
1676104293.665096,7498,1676104293,658755840,base_link,0.03336379167563498,0.07323169950145023,0.0166061954880804,-0.9966184569360029,1.0,0.0,0.0,0.0,1.0,0.0,0.0,0.0,1.0,0.0014876234345138073,0.0007753892568871379,0.00011337801697663953,1.2184696791468346e-07,0.0,0.0,0.0,1.2184696791468346e-07,0.0,0.0,0.0,1.2184696791468346e-07,1.4493557214736938,-0.6067520976066577,9.691031455993652,8.999999999999999e-08,0.0,0.0,0.0,8.999999999999999e-08,0.0,0.0,0.0,8.999999999999999e-08
1676104293.6824243,7499,1676104293,678755840,base_link,0.033363047520340965,0.07322537352290655,0.016609777970203837,-0.9966188362576395,1.0,0.0,0.0,0.0,1.0,0.0,0.0,0.0,1.0,-0.0012956401333212852,-0.00024920224677771324,0.0002229247184004635,1.2184696791468346e-07,0.0,0.0,0.0,1.2184696791468346e-07,0.0,0.0,0.0,1.2184696791468346e-07,1.448278784751892,-0.6516156792640674,9.689919471740723,8.999999999999999e-08,0.0,0.0,0.0,8.999999999999999e-08,0.0,0.0,0.0,8.999999999999999e-08
1676104293.7038448,7500,1676104293,698755840,base_link,0.0333558325067115,0.07322091385949848,0.016608302830505947,-0.9966194684603672,1.0,0.0,0.0,0.0,1.0,0.0,0.0,0.0,1.0,0.0009952271357178688,0.0018262761877849698,0.0005376985063776372,1.2184696791468346e-07,0.0,0.0,0.0,1.2184696791468346e-07,0.0,0.0,0.0,1.2184696791468346e-07,1.4328842163085938,-0.6269269585609424,9.686235427856445,8.999999999999999e-08,0.0,0.0,0.0,8.999999999999999e-08,0.0,0.0,0.0,8.999999999999999e-08
1676104293.7259877,7501,1676104293,718759936,base_link,0.03335942025719099,0.073220708393612,0.01660876644583957,-0.9966193420198216,1.0,0.0,0.0,0.0,1.0,0.0,0.0,0.0,1.0,-0.001594488974660635,-0.0015968026127666237,-0.0017559905536472795,1.2184696791468346e-07,0.0,0.0,0.0,1.2184696791468346e-07,0.0,0.0,0.0,1.2184696791468346e-07,1.4110323190689087,-0.6208056807517993,9.682897567749023,8.999999999999999e-08,0.0,0.0,0.0,8.999999999999999e-08,0.0,0.0,0.0,8.999999999999999e-08
1676104293.744078,7502,1676104293,738759936,base_link,0.03336359279519357,0.0732271357880099,0.01662077829766517,-0.9966185412297,1.0,0.0,0.0,0.0,1.0,0.0,0.0,0.0,1.0,-0.003153533674776554,-0.0006182179204188287,0.00011343605001457044,1.2184696791468346e-07,0.0,0.0,0.0,1.2184696791468346e-07,0.0,0.0,0.0,1.2184696791468346e-07,1.4502301216125488,-0.6300311088562,9.683269500732422,8.999999999999999e-08,0.0,0.0,0.0,8.999999999999999e-08,0.0,0.0,0.0,8.999999999999999e-08
1676104293.7627847,7503,1676104293,758759936,base_link,0.03336887959050366,0.07322090068860833,0.01661820733990605,-0.9966188362576395,1.0,0.0,0.0,0.0,1.0,0.0,0.0,0.0,1.0,-0.0023377148900181055,0.0016480762278661132,0.0002432188775856046,1.2184696791468346e-07,0.0,0.0,0.0,1.2184696791468346e-07,0.0,0.0,0.0,1.2184696791468346e-07,1.4392648935317993,-0.6349339485168445,9.6781005859375,8.999999999999999e-08,0.0,0.0,0.0,8.999999999999999e-08,0.0,0.0,0.0,8.999999999999999e-08
1676104293.7841837,7504,1676104293,778759936,base_link,0.03336697244560854,0.07321710747224235,0.01661669005335965,-0.9966191734324276,1.0,0.0,0.0,0.0,1.0,0.0,0.0,0.0,1.0,-0.0014621271984651685,0.00038252747617661953,-5.326149403117602e-05,1.2184696791468346e-07,0.0,0.0,0.0,1.2184696791468346e-07,0.0,0.0,0.0,1.2184696791468346e-07,1.4687774181365967,-0.6372277736663806,9.66366195678711,8.999999999999999e-08,0.0,0.0,0.0,8.999999999999999e-08,0.0,0.0,0.0,8.999999999999999e-08
1676104293.802368,7505,1676104293,798759936,base_link,0.03337471956320045,0.0732132589381377,0.0166201460949375,-0.9966191734324276,1.0,0.0,0.0,0.0,1.0,0.0,0.0,0.0,1.0,0.0004771419335156679,0.00032859586644917716,-0.0009872133377939463,1.2184696791468346e-07,0.0,0.0,0.0,1.2184696791468346e-07,0.0,0.0,0.0,1.2184696791468346e-07,1.4368062019348145,-0.6198948621749866,9.697617530822754,8.999999999999999e-08,0.0,0.0,0.0,8.999999999999999e-08,0.0,0.0,0.0,8.999999999999999e-08
1676104293.8483946,7506,1676104293,843765312,base_link,0.03344375214979424,0.07320143016168532,0.016211869573412505,-0.9966244417884915,1.0,0.0,0.0,0.0,1.0,0.0,0.0,0.0,1.0,-0.002210618695244193,-0.009362040087580688,-0.05742086470127106,1.2184696791468346e-07,0.0,0.0,0.0,1.2184696791468346e-07,0.0,0.0,0.0,1.2184696791468346e-07,1.428667426109314,-0.6449863314628589,9.69562816619873,8.999999999999999e-08,0.0,0.0,0.0,8.999999999999999e-08,0.0,0.0,0.0,8.999999999999999e-08
1676104293.868176,7507,1676104293,863765312,base_link,0.03343557566118313,0.07311928595393757,0.017746815649330724,-0.9966045906228428,1.0,0.0,0.0,0.0,1.0,0.0,0.0,0.0,1.0,-0.00045744702219963074,0.05280687287449837,-0.026829103007912643,1.2184696791468346e-07,0.0,0.0,0.0,1.2184696791468346e-07,0.0,0.0,0.0,1.2184696791468346e-07,1.8868802785873413,-0.7935885787010181,9.646507263183594,8.999999999999999e-08,0.0,0.0,0.0,8.999999999999999e-08,0.0,0.0,0.0,8.999999999999999e-08
1676104293.889001,7508,1676104293,883765312,base_link,0.03319171531278811,0.0732726148717312,0.016854777600597694,-0.9966170239431535,1.0,0.0,0.0,0.0,1.0,0.0,0.0,0.0,1.0,0.03442096337676048,-0.048389986157417283,0.14101077616214752,1.2184696791468346e-07,0.0,0.0,0.0,1.2184696791468346e-07,0.0,0.0,0.0,1.2184696791468346e-07,1.3010191917419434,-1.0810807943344105,8.65770149230957,8.999999999999999e-08,0.0,0.0,0.0,8.999999999999999e-08,0.0,0.0,0.0,8.999999999999999e-08
1676104293.9110703,7509,1676104293,903770176,base_link,0.032955542812979285,0.07358347158710132,0.015966490621382088,-0.9966166024746684,1.0,0.0,0.0,0.0,1.0,0.0,0.0,0.0,1.0,0.022477731108665466,-0.032448504120111465,0.026721933856606487,1.2184696791468346e-07,0.0,0.0,0.0,1.2184696791468346e-07,0.0,0.0,0.0,1.2184696791468346e-07,1.2408413887023926,-0.6367617249488818,9.635049819946289,8.999999999999999e-08,0.0,0.0,0.0,8.999999999999999e-08,0.0,0.0,0.0,8.999999999999999e-08
1676104293.9287045,7510,1676104293,923770176,base_link,0.032717395996735524,0.07385595754816934,0.016027940726510932,-0.996603284070539,1.0,0.0,0.0,0.0,1.0,0.0,0.0,0.0,1.0,0.03709583729505539,-0.027767313644289974,-0.014672026969492432,1.2184696791468346e-07,0.0,0.0,0.0,1.2184696791468346e-07,0.0,0.0,0.0,1.2184696791468346e-07,1.3589398860931396,-0.5241373777389515,9.321208000183105,8.999999999999999e-08,0.0,0.0,0.0,8.999999999999999e-08,0.0,0.0,0.0,8.999999999999999e-08
1676104293.9501443,7511,1676104293,943770176,base_link,0.03203364635625428,0.073358394245163,0.01645750140653401,-0.9966552089879044,1.0,0.0,0.0,0.0,1.0,0.0,0.0,0.0,1.0,0.08614766597747803,0.18025831878185272,-0.05492377653717997,1.2184696791468346e-07,0.0,0.0,0.0,1.2184696791468346e-07,0.0,0.0,0.0,1.2184696791468346e-07,1.7240465879440308,-0.9766760468482959,10.37523365020752,8.999999999999999e-08,0.0,0.0,0.0,8.999999999999999e-08,0.0,0.0,0.0,8.999999999999999e-08
1676104293.9704902,7512,1676104293,963770176,base_link,0.03019877540379841,0.070879630082938,0.017142598429078577,-0.9968803153058011,1.0,0.0,0.0,0.0,1.0,0.0,0.0,0.0,1.0,0.21137762069702148,0.36956846714019775,-0.05953010544180875,1.2184696791468346e-07,0.0,0.0,0.0,1.2184696791468346e-07,0.0,0.0,0.0,1.2184696791468346e-07,1.7422980070114136,-2.3190908432006827,8.782914161682129,8.999999999999999e-08,0.0,0.0,0.0,8.999999999999999e-08,0.0,0.0,0.0,8.999999999999999e-08
1676104293.991134,7513,1676104293,983770176,base_link,0.02813509843040001,0.06586776788531241,0.01726056745806056,-0.9972822698000494,1.0,0.0,0.0,0.0,1.0,0.0,0.0,0.0,1.0,0.12434868514537811,0.6642016768455505,0.06031643599271766,1.2184696791468346e-07,0.0,0.0,0.0,1.2184696791468346e-07,0.0,0.0,0.0,1.2184696791468346e-07,3.471724510192871,-1.0688570737838732,11.272625923156738,8.999999999999999e-08,0.0,0.0,0.0,8.999999999999999e-08,0.0,0.0,0.0,8.999999999999999e-08
1676104294.0122602,7514,1676104294,3770176,base_link,0.02585091177977064,0.058615402928449974,0.017181542117102617,-0.9977979364915802,1.0,0.0,0.0,0.0,1.0,0.0,0.0,0.0,1.0,0.29055091738700867,0.816053032875061,0.0028242284897713856,1.2184696791468346e-07,0.0,0.0,0.0,1.2184696791468346e-07,0.0,0.0,0.0,1.2184696791468346e-07,1.4095865488052368,-0.9839488267898551,7.545196533203125,8.999999999999999e-08,0.0,0.0,0.0,8.999999999999999e-08,0.0,0.0,0.0,8.999999999999999e-08
1676104294.0301385,7515,1676104294,23777088,base_link,0.023901431692412507,0.049978811660122274,0.017080769002313066,-0.9983181550427502,1.0,0.0,0.0,0.0,1.0,0.0,0.0,0.0,1.0,0.11860441416501999,0.9052973985671997,0.01618003100156773,1.2184696791468346e-07,0.0,0.0,0.0,1.2184696791468346e-07,0.0,0.0,0.0,1.2184696791468346e-07,2.0368473529815674,-1.490100264549254,11.38548755645752,8.999999999999999e-08,0.0,0.0,0.0,8.999999999999999e-08,0.0,0.0,0.0,8.999999999999999e-08
1676104294.0494525,7516,1676104294,43777088,base_link,0.022283937062418623,0.04127067084809127,0.016858191495327034,-0.9987571987636882,1.0,0.0,0.0,0.0,1.0,0.0,0.0,0.0,1.0,0.11094192415475845,0.839969277381897,0.06306321173906317,1.2184696791468346e-07,0.0,0.0,0.0,1.2184696791468346e-07,0.0,0.0,0.0,1.2184696791468346e-07,1.7014931440353394,-0.42744979262351884,8.6892671585083,8.999999999999999e-08,0.0,0.0,0.0,8.999999999999999e-08,0.0,0.0,0.0,8.999999999999999e-08
1676104294.0689898,7517,1676104294,63777088,base_link,0.02022613759875397,0.033391249688895314,0.016780430559824453,-0.9990967759221405,1.0,0.0,0.0,0.0,1.0,0.0,0.0,0.0,1.0,0.08865996450185776,0.7213253378868103,0.03669857978820792,1.2184696791468346e-07,0.0,0.0,0.0,1.2184696791468346e-07,0.0,0.0,0.0,1.2184696791468346e-07,0.3749832212924957,-0.5068306326866137,10.707864761352539,8.999999999999999e-08,0.0,0.0,0.0,8.999999999999999e-08,0.0,0.0,0.0,8.999999999999999e-08
1676104294.087347,7518,1676104294,83777088,base_link,0.0186056205787407,0.026740779595077653,0.016708907357901485,-0.9993296372601632,1.0,0.0,0.0,0.0,1.0,0.0,0.0,0.0,1.0,0.1430864930152893,0.6126707196235657,0.0025273561477660383,1.2184696791468346e-07,0.0,0.0,0.0,1.2184696791468346e-07,0.0,0.0,0.0,1.2184696791468346e-07,-0.05752931162714958,-0.5935935974121082,9.848047256469727,8.999999999999999e-08,0.0,0.0,0.0,8.999999999999999e-08,0.0,0.0,0.0,8.999999999999999e-08
1676104294.109329,7519,1676104294,103777088,base_link,0.016407313071036093,0.02169613538111693,0.016676117109759966,-0.9994908911025658,1.0,0.0,0.0,0.0,1.0,0.0,0.0,0.0,1.0,0.13741470873355865,0.41167089343070984,0.027975695207714982,1.2184696791468346e-07,0.0,0.0,0.0,1.2184696791468346e-07,0.0,0.0,0.0,1.2184696791468346e-07,0.0749649628996849,-0.5340148806571948,9.691039085388184,8.999999999999999e-08,0.0,0.0,0.0,8.999999999999999e-08,0.0,0.0,0.0,8.999999999999999e-08
1676104294.1299767,7520,1676104294,123781952,base_link,0.014717971893765803,0.018042523206839217,0.016576018344546632,-0.9995914956299614,1.0,0.0,0.0,0.0,1.0,0.0,0.0,0.0,1.0,0.18512286245822906,0.2940371334552765,0.003128493670374119,1.2184696791468346e-07,0.0,0.0,0.0,1.2184696791468346e-07,0.0,0.0,0.0,1.2184696791468346e-07,-0.7334827184677124,-0.5822902917861926,9.97547435760498,8.999999999999999e-08,0.0,0.0,0.0,8.999999999999999e-08,0.0,0.0,0.0,8.999999999999999e-08
1676104294.150379,7521,1676104294,143781952,base_link,0.01285708876251687,0.015779455749308603,0.016601432894198662,-0.9996550109306673,1.0,0.0,0.0,0.0,1.0,0.0,0.0,0.0,1.0,0.16247449815273285,0.15310904383659363,-0.03150406479835512,1.2184696791468346e-07,0.0,0.0,0.0,1.2184696791468346e-07,0.0,0.0,0.0,1.2184696791468346e-07,0.044006530195474625,-0.10298585891723512,9.886565208435059,8.999999999999999e-08,0.0,0.0,0.0,8.999999999999999e-08,0.0,0.0,0.0,8.999999999999999e-08
1676104294.1708825,7522,1676104294,163781952,base_link,0.011629782576683382,0.014596921041122575,0.01664020799482871,-0.9996873797103236,1.0,0.0,0.0,0.0,1.0,0.0,0.0,0.0,1.0,0.011188043281435966,0.08508063107728958,0.05576283112168311,1.2184696791468346e-07,0.0,0.0,0.0,1.2184696791468346e-07,0.0,0.0,0.0,1.2184696791468346e-07,-0.2075936198234558,-0.2847890853881823,10.234869003295898,8.999999999999999e-08,0.0,0.0,0.0,8.999999999999999e-08,0.0,0.0,0.0,8.999999999999999e-08
1676104294.188928,7523,1676104294,183781952,base_link,0.0103378884857766,0.014181317224129474,0.016599030523833543,-0.9997082424003365,1.0,0.0,0.0,0.0,1.0,0.0,0.0,0.0,1.0,0.18994955718517303,0.027194699272513386,-0.030978683382272724,1.2184696791468346e-07,0.0,0.0,0.0,1.2184696791468346e-07,0.0,0.0,0.0,1.2184696791468346e-07,-0.3933391571044922,-0.4046384990215291,8.688302040100098,8.999999999999999e-08,0.0,0.0,0.0,8.999999999999999e-08,0.0,0.0,0.0,8.999999999999999e-08
1676104294.2102005,7524,1676104294,203781952,base_link,0.009600292459691764,0.014259420438140097,0.016553638367987327,-0.9997151966303408,1.0,0.0,0.0,0.0,1.0,0.0,0.0,0.0,1.0,-0.0022332067601382732,-0.007519917096942666,-0.01961490325629711,1.2184696791468346e-07,0.0,0.0,0.0,1.2184696791468346e-07,0.0,0.0,0.0,1.2184696791468346e-07,0.21169216930866241,0.9328358769416822,11.022665977478027,8.999999999999999e-08,0.0,0.0,0.0,8.999999999999999e-08,0.0,0.0,0.0,8.999999999999999e-08
1676104294.2286174,7525,1676104294,223787328,base_link,0.00910883106546026,0.014523670806227403,0.016732551739916064,-0.9997130471410668,1.0,0.0,0.0,0.0,1.0,0.0,0.0,0.0,1.0,-0.03982595354318619,-0.055321771651506424,-0.0010733115486800603,1.2184696791468346e-07,0.0,0.0,0.0,1.2184696791468346e-07,0.0,0.0,0.0,1.2184696791468346e-07,0.6937947273254395,-0.7526305317878713,8.550395011901855,8.999999999999999e-08,0.0,0.0,0.0,8.999999999999999e-08,0.0,0.0,0.0,8.999999999999999e-08
1676104294.2502105,7526,1676104294,243787328,base_link,0.008476445097787503,0.014610987387176958,0.016772844127092512,-0.9997166717700388,1.0,0.0,0.0,0.0,1.0,0.0,0.0,0.0,1.0,-0.06284018605947495,-0.019999053329229355,0.010814229957759382,1.2184696791468346e-07,0.0,0.0,0.0,1.2184696791468346e-07,0.0,0.0,0.0,1.2184696791468346e-07,-0.21404743194580078,-0.18969137966632718,10.167031288146973,8.999999999999999e-08,0.0,0.0,0.0,8.999999999999999e-08,0.0,0.0,0.0,8.999999999999999e-08
1676104294.2701697,7527,1676104294,263787328,base_link,0.008556694343713514,0.014307641701192624,0.01670237459638228,-0.999721560804466,1.0,0.0,0.0,0.0,1.0,0.0,0.0,0.0,1.0,-0.0060025788843631744,0.048832423985004425,-0.01894818432629109,1.2184696791468346e-07,0.0,0.0,0.0,1.2184696791468346e-07,0.0,0.0,0.0,1.2184696791468346e-07,0.14078298211097717,0.9104822874069227,10.624337196350098,8.999999999999999e-08,0.0,0.0,0.0,8.999999999999999e-08,0.0,0.0,0.0,8.999999999999999e-08
1676104294.288825,7528,1676104294,283787328,base_link,0.008114813283762888,0.01366486439509228,0.016810818437600804,-0.9997323925445333,1.0,0.0,0.0,0.0,1.0,0.0,0.0,0.0,1.0,0.09673279523849487,0.059253577142953866,-0.02902874723076821,1.2184696791468346e-07,0.0,0.0,0.0,1.2184696791468346e-07,0.0,0.0,0.0,1.2184696791468346e-07,0.6865740418434143,-0.12857413291931052,8.136027336120605,8.999999999999999e-08,0.0,0.0,0.0,8.999999999999999e-08,0.0,0.0,0.0,8.999999999999999e-08
1676104294.3138032,7529,1676104294,303787328,base_link,0.008006852320304837,0.012629145599515921,0.016684420038916625,-0.999749040549695,1.0,0.0,0.0,0.0,1.0,0.0,0.0,0.0,1.0,0.07746831327676773,0.1370733380317688,-0.04106552526354791,1.2184696791468346e-07,0.0,0.0,0.0,1.2184696791468346e-07,0.0,0.0,0.0,1.2184696791468346e-07,1.0149364471435547,0.6909918785095228,10.870060920715332,8.999999999999999e-08,0.0,0.0,0.0,8.999999999999999e-08,0.0,0.0,0.0,8.999999999999999e-08
1676104294.328099,7530,1676104294,323793984,base_link,0.0075042985670170015,0.011488958760551848,0.01685077364998911,-0.9997639183872195,1.0,0.0,0.0,0.0,1.0,0.0,0.0,0.0,1.0,0.012653673999011517,0.10899799317121506,-0.022081274539232268,1.2184696791468346e-07,0.0,0.0,0.0,1.2184696791468346e-07,0.0,0.0,0.0,1.2184696791468346e-07,0.7583997845649719,-0.6120472550392141,8.595002174377441,8.999999999999999e-08,0.0,0.0,0.0,8.999999999999999e-08,0.0,0.0,0.0,8.999999999999999e-08
1676104294.349677,7531,1676104294,343793984,base_link,0.007023208260969464,0.010413290679487732,0.01701316545730162,-0.9997764360012272,1.0,0.0,0.0,0.0,1.0,0.0,0.0,0.0,1.0,0.026299521327018738,0.12266027927398682,0.003758241422474369,1.2184696791468346e-07,0.0,0.0,0.0,1.2184696791468346e-07,0.0,0.0,0.0,1.2184696791468346e-07,0.6502907872200012,-0.5244536995887744,10.046463012695312,8.999999999999999e-08,0.0,0.0,0.0,8.999999999999999e-08,0.0,0.0,0.0,8.999999999999999e-08
1676104294.3702807,7532,1676104294,363793984,base_link,0.00625325497975715,0.009354289372103896,0.0170567874455104,-0.9997912295450545,1.0,0.0,0.0,0.0,1.0,0.0,0.0,0.0,1.0,0.05952683836221695,0.07966792583465576,-0.022375980392098437,1.2184696791468346e-07,0.0,0.0,0.0,1.2184696791468346e-07,0.0,0.0,0.0,1.2184696791468346e-07,-0.5033950209617615,-0.9331185817718494,10.204607963562012,8.999999999999999e-08,0.0,0.0,0.0,8.999999999999999e-08,0.0,0.0,0.0,8.999999999999999e-08
1676104294.3888748,7533,1676104294,383793984,base_link,0.005945887974052883,0.008404407984194099,0.016971566517821376,-0.9998030306626375,1.0,0.0,0.0,0.0,1.0,0.0,0.0,0.0,1.0,0.022541821002960205,0.08577209711074829,0.004852177575230588,1.2184696791468346e-07,0.0,0.0,0.0,1.2184696791468346e-07,0.0,0.0,0.0,1.2184696791468346e-07,-0.043108344078063965,1.0608907938003553,10.31075668334961,8.999999999999999e-08,0.0,0.0,0.0,8.999999999999999e-08,0.0,0.0,0.0,8.999999999999999e-08
1676104294.4116926,7534,1676104294,403800128,base_link,0.005430286231474193,0.007636431406640558,0.016840110497315892,-0.99981428387119,1.0,0.0,0.0,0.0,1.0,0.0,0.0,0.0,1.0,0.12244269251823425,0.07490193843841553,0.025536086410284032,1.2184696791468346e-07,0.0,0.0,0.0,1.2184696791468346e-07,0.0,0.0,0.0,1.2184696791468346e-07,0.8660211563110352,-0.8310676217079153,8.285086631774902,8.999999999999999e-08,0.0,0.0,0.0,8.999999999999999e-08,0.0,0.0,0.0,8.999999999999999e-08
1676104294.4282153,7535,1676104294,423800128,base_link,0.004596457425710096,0.006991981891398319,0.016854440425809563,-0.9998229661219832,1.0,0.0,0.0,0.0,1.0,0.0,0.0,0.0,1.0,-0.02787511982023716,0.05381572246551514,-0.014678841456770904,1.2184696791468346e-07,0.0,0.0,0.0,1.2184696791468346e-07,0.0,0.0,0.0,1.2184696791468346e-07,-0.4398835003376007,-0.16000381112098563,10.594084739685059,8.999999999999999e-08,0.0,0.0,0.0,8.999999999999999e-08,0.0,0.0,0.0,8.999999999999999e-08
1676104294.450645,7536,1676104294,443800128,base_link,0.004560366470176547,0.006399848386641181,0.016803611326505426,-0.9998279394501075,1.0,0.0,0.0,0.0,1.0,0.0,0.0,0.0,1.0,0.03625432774424553,0.05455712974071503,-0.0026509247254580324,1.2184696791468346e-07,0.0,0.0,0.0,1.2184696791468346e-07,0.0,0.0,0.0,1.2184696791468346e-07,-0.13727211952209473,0.3246282637119306,10.36251163482666,8.999999999999999e-08,0.0,0.0,0.0,8.999999999999999e-08,0.0,0.0,0.0,8.999999999999999e-08
1676104294.4709704,7537,1676104294,463800128,base_link,0.004072217719456324,0.005896588673640787,0.016777859602065313,-0.9998336292746565,1.0,0.0,0.0,0.0,1.0,0.0,0.0,0.0,1.0,0.125896617770195,0.042384009808301926,0.0017999145202338643,1.2184696791468346e-07,0.0,0.0,0.0,1.2184696791468346e-07,0.0,0.0,0.0,1.2184696791468346e-07,0.9409294724464417,-0.44234681129455455,8.946611404418945,8.999999999999999e-08,0.0,0.0,0.0,8.999999999999999e-08,0.0,0.0,0.0,8.999999999999999e-08
1676104294.4882517,7538,1676104294,483800128,base_link,0.003450997456234478,0.005498859483273671,0.016880782206128864,-0.9998364952603552,1.0,0.0,0.0,0.0,1.0,0.0,0.0,0.0,1.0,-0.1346464604139328,0.056052543222904205,0.006169324275106185,1.2184696791468346e-07,0.0,0.0,0.0,1.2184696791468346e-07,0.0,0.0,0.0,1.2184696791468346e-07,-0.3686101734638214,0.08992131054401531,10.839224815368652,8.999999999999999e-08,0.0,0.0,0.0,8.999999999999999e-08,0.0,0.0,0.0,8.999999999999999e-08
1676104294.5121667,7539,1676104294,503806016,base_link,0.0035355056741297407,0.005097146839495832,0.01680171471832244,-0.999839614127145,1.0,0.0,0.0,0.0,1.0,0.0,0.0,0.0,1.0,0.12327907979488373,0.032845012843608856,-0.0069557549431920095,1.2184696791468346e-07,0.0,0.0,0.0,1.2184696791468346e-07,0.0,0.0,0.0,1.2184696791468346e-07,0.10848896950483322,-0.24749414622783547,9.372051239013672,8.999999999999999e-08,0.0,0.0,0.0,8.999999999999999e-08,0.0,0.0,0.0,8.999999999999999e-08
1676104294.5315273,7540,1676104294,528806016,base_link,0.002988572441812822,0.00485433176587111,0.016871720633699024,-0.999841426441631,1.0,0.0,0.0,0.0,1.0,0.0,0.0,0.0,1.0,0.009181255474686623,0.020010087639093396,-0.01842475309967995,1.2184696791468346e-07,0.0,0.0,0.0,1.2184696791468346e-07,0.0,0.0,0.0,1.2184696791468346e-07,0.5093493461608887,0.4334274530410779,10.067031860351562,8.999999999999999e-08,0.0,0.0,0.0,8.999999999999999e-08,0.0,0.0,0.0,8.999999999999999e-08
1676104294.5511894,7541,1676104294,543806016,base_link,0.002901510388315601,0.004742300009536963,0.016942443045500306,-0.9998410892668429,1.0,0.0,0.0,0.0,1.0,0.0,0.0,0.0,1.0,-0.14218519628047943,0.029624823480844508,0.07584545761346817,1.2184696791468346e-07,0.0,0.0,0.0,1.2184696791468346e-07,0.0,0.0,0.0,1.2184696791468346e-07,0.3919053375720978,-0.10375177860259903,8.737455368041992,8.999999999999999e-08,0.0,0.0,0.0,8.999999999999999e-08,0.0,0.0,0.0,8.999999999999999e-08
1676104294.5704448,7542,1676104294,563806016,base_link,0.002861742943430112,0.004548846551098404,0.01689979043480733,-0.9998427751407833,1.0,0.0,0.0,0.0,1.0,0.0,0.0,0.0,1.0,0.12226836383342743,0.007464201655238862,-0.040245261043310165,1.2184696791468346e-07,0.0,0.0,0.0,1.2184696791468346e-07,0.0,0.0,0.0,1.2184696791468346e-07,-0.23167316615581512,-0.4988120198249806,9.003641128540039,8.999999999999999e-08,0.0,0.0,0.0,8.999999999999999e-08,0.0,0.0,0.0,8.999999999999999e-08
1676104294.588266,7543,1676104294,582806016,base_link,0.0029320657010331107,0.004423624889131935,0.017126877654583993,-0.9998392348055084,1.0,0.0,0.0,0.0,1.0,0.0,0.0,0.0,1.0,-0.04643591493368149,0.03445856645703316,0.0067715565674006896,1.2184696791468346e-07,0.0,0.0,0.0,1.2184696791468346e-07,0.0,0.0,0.0,1.2184696791468346e-07,0.37927526235580444,1.6423904895782484,11.221315383911133,8.999999999999999e-08,0.0,0.0,0.0,8.999999999999999e-08,0.0,0.0,0.0,8.999999999999999e-08
1676104294.6107225,7544,1676104294,602812160,base_link,0.0029083880625208457,0.0042781902736277605,0.01717597873309921,-0.99983919265866,1.0,0.0,0.0,0.0,1.0,0.0,0.0,0.0,1.0,0.016459543257951736,0.022439884021878242,0.010758773423731324,1.2184696791468346e-07,0.0,0.0,0.0,1.2184696791468346e-07,0.0,0.0,0.0,1.2184696791468346e-07,0.517583966255188,-1.3627961874008168,8.380346298217773,8.999999999999999e-08,0.0,0.0,0.0,8.999999999999999e-08,0.0,0.0,0.0,8.999999999999999e-08
1676104294.631309,7545,1676104294,622812160,base_link,0.0026644342008056952,0.004113839296404038,0.01734827504981171,-0.9998375067847195,1.0,0.0,0.0,0.0,1.0,0.0,0.0,0.0,1.0,-0.05981044843792915,0.001176432240754364,-0.016648249700665474,1.2184696791468346e-07,0.0,0.0,0.0,1.2184696791468346e-07,0.0,0.0,0.0,1.2184696791468346e-07,-0.5984662175178528,0.33724936842918524,10.248418807983398,8.999999999999999e-08,0.0,0.0,0.0,8.999999999999999e-08,0.0,0.0,0.0,8.999999999999999e-08
