Time,header.seq,header.stamp.secs,header.stamp.nsecs,header.frame_id,orientation.x,orientation.y,orientation.z,orientation.w,orientation_covariance_0,orientation_covariance_1,orientation_covariance_2,orientation_covariance_3,orientation_covariance_4,orientation_covariance_5,orientation_covariance_6,orientation_covariance_7,orientation_covariance_8,angular_velocity.x,angular_velocity.y,angular_velocity.z,angular_velocity_covariance_0,angular_velocity_covariance_1,angular_velocity_covariance_2,angular_velocity_covariance_3,angular_velocity_covariance_4,angular_velocity_covariance_5,angular_velocity_covariance_6,angular_velocity_covariance_7,angular_velocity_covariance_8,linear_acceleration.x,linear_acceleration.y,linear_acceleration.z,linear_acceleration_covariance_0,linear_acceleration_covariance_1,linear_acceleration_covariance_2,linear_acceleration_covariance_3,linear_acceleration_covariance_4,linear_acceleration_covariance_5,linear_acceleration_covariance_6,linear_acceleration_covariance_7,linear_acceleration_covariance_8
1676469335.1215434,10871,1676469334,655261056,base_link,0.010550336096504721,0.10359779657674781,-0.0037515752796516105,-0.9945562959320619,1.0,0.0,0.0,0.0,1.0,0.0,0.0,0.0,1.0,-0.0011762429494410753,-0.0004473275039345024,0.0016513022128492594,1.2184696791468346e-07,0.0,0.0,0.0,1.2184696791468346e-07,0.0,0.0,0.0,1.2184696791468346e-07,2.0190343856811523,-0.24226978421211126,9.594484329223633,8.999999999999999e-08,0.0,0.0,0.0,8.999999999999999e-08,0.0,0.0,0.0,8.999999999999999e-08
1676469335.1216288,10872,1676469334,675265920,base_link,0.010559223813184459,0.10360352327978922,-0.003754314824804827,-0.9945555794356372,1.0,0.0,0.0,0.0,1.0,0.0,0.0,0.0,1.0,-0.0035020760260522366,-0.0024103200994431973,0.00032417636248283115,1.2184696791468346e-07,0.0,0.0,0.0,1.2184696791468346e-07,0.0,0.0,0.0,1.2184696791468346e-07,2.0117952823638916,-0.21791875362396124,9.594846725463867,8.999999999999999e-08,0.0,0.0,0.0,8.999999999999999e-08,0.0,0.0,0.0,8.999999999999999e-08
1676469335.1216934,10873,1676469334,695265920,base_link,0.010555267277780493,0.10360595199193466,-0.0037540197968652486,-0.9945553687013946,1.0,0.0,0.0,0.0,1.0,0.0,0.0,0.0,1.0,0.0018931501545011997,0.001785287749953568,0.0007267715409398077,1.2184696791468346e-07,0.0,0.0,0.0,1.2184696791468346e-07,0.0,0.0,0.0,1.2184696791468346e-07,2.036303997039795,-0.19871538877487066,9.603025436401367,8.999999999999999e-08,0.0,0.0,0.0,8.999999999999999e-08,0.0,0.0,0.0,8.999999999999999e-08
1676469335.1218517,10874,1676469334,715265920,base_link,0.010556468462963054,0.1036050142245553,-0.0037613954953546287,-0.9945554108482432,1.0,0.0,0.0,0.0,1.0,0.0,0.0,0.0,1.0,0.0027437792159616947,0.0009675630135461689,0.0009185529779642819,1.2184696791468346e-07,0.0,0.0,0.0,1.2184696791468346e-07,0.0,0.0,0.0,1.2184696791468346e-07,2.0188019275665283,-0.22701054811477545,9.594664573669434,8.999999999999999e-08,0.0,0.0,0.0,8.999999999999999e-08,0.0,0.0,0.0,8.999999999999999e-08
1676469335.1219118,10875,1676469334,730265920,base_link,0.010557643306365296,0.10360072051436325,-0.003762659900809962,-0.9945558323167283,1.0,0.0,0.0,0.0,1.0,0.0,0.0,0.0,1.0,0.00043675582855939865,6.0354359447956365e-06,0.0002304518420714885,1.2184696791468346e-07,0.0,0.0,0.0,1.2184696791468346e-07,0.0,0.0,0.0,1.2184696791468346e-07,2.025179624557495,-0.22431957721710089,9.587265014648438,8.999999999999999e-08,0.0,0.0,0.0,8.999999999999999e-08,0.0,0.0,0.0,8.999999999999999e-08
1676469335.1220026,10876,1676469334,755265920,base_link,0.010564360460346724,0.10361069351239215,-0.0037671274667521303,-0.994554736498667,1.0,0.0,0.0,0.0,1.0,0.0,0.0,0.0,1.0,-0.0008423156104981899,-0.0005644663469865917,0.001130115007981658,1.2184696791468346e-07,0.0,0.0,0.0,1.2184696791468346e-07,0.0,0.0,0.0,1.2184696791468346e-07,2.019740104675293,-0.209457755088805,9.609262466430664,8.999999999999999e-08,0.0,0.0,0.0,8.999999999999999e-08,0.0,0.0,0.0,8.999999999999999e-08
1676469335.1220903,10877,1676469334,775267456,base_link,0.010568127334932379,0.10361243733824928,-0.0037670853199036182,-0.9945545257644245,1.0,0.0,0.0,0.0,1.0,0.0,0.0,0.0,1.0,0.00074821338057518,0.000982405268587172,0.00018494427786208678,1.2184696791468346e-07,0.0,0.0,0.0,1.2184696791468346e-07,0.0,0.0,0.0,1.2184696791468346e-07,2.0273516178131104,-0.22318536043166998,9.574640274047852,8.999999999999999e-08,0.0,0.0,0.0,8.999999999999999e-08,0.0,0.0,0.0,8.999999999999999e-08
1676469335.122125,10878,1676469334,790267456,base_link,0.010571709817055807,0.10361976035317805,-0.0037674646415402145,-0.9945537249743027,1.0,0.0,0.0,0.0,1.0,0.0,0.0,0.0,1.0,-0.002115210983902216,0.0007447093958035113,0.0004986110143363475,1.2184696791468346e-07,0.0,0.0,0.0,1.2184696791468346e-07,0.0,0.0,0.0,1.2184696791468346e-07,2.0330095291137695,-0.2081520259380329,9.602163314819336,8.999999999999999e-08,0.0,0.0,0.0,8.999999999999999e-08,0.0,0.0,0.0,8.999999999999999e-08
1676469335.1222222,10879,1676469334,815267456,base_link,0.010571082882684213,0.1036199552823524,-0.0037654837396601947,-0.9945536828274543,1.0,0.0,0.0,0.0,1.0,0.0,0.0,0.0,1.0,0.000873972661793232,-0.00035315030254423624,-0.0004678681143559515,1.2184696791468346e-07,0.0,0.0,0.0,1.2184696791468346e-07,0.0,0.0,0.0,1.2184696791468346e-07,2.0190916061401367,-0.21844002604484442,9.57395076751709,8.999999999999999e-08,0.0,0.0,0.0,8.999999999999999e-08,0.0,0.0,0.0,8.999999999999999e-08
1676469335.1223004,10880,1676469334,834267456,base_link,0.010586524434307387,0.10361905439346548,-0.0037613112016576552,-0.9945536406806057,1.0,0.0,0.0,0.0,1.0,0.0,0.0,0.0,1.0,-0.0025039557367563248,-0.00015795731451362366,0.0005332919536158442,1.2184696791468346e-07,0.0,0.0,0.0,1.2184696791468346e-07,0.0,0.0,0.0,1.2184696791468346e-07,2.026665449142456,-0.19680216908454778,9.58565616607666,8.999999999999999e-08,0.0,0.0,0.0,8.999999999999999e-08,0.0,0.0,0.0,8.999999999999999e-08
1676469335.1223564,10881,1676469334,849267456,base_link,0.010581329835228423,0.10361672578008527,-0.0037613112016576565,-0.9945539778553938,1.0,0.0,0.0,0.0,1.0,0.0,0.0,0.0,1.0,-0.0011914628557860851,-0.0012585613876581192,-0.0004160174285061656,1.2184696791468346e-07,0.0,0.0,0.0,1.2184696791468346e-07,0.0,0.0,0.0,1.2184696791468346e-07,2.0259861946105957,-0.21828380227088812,9.597685813903809,8.999999999999999e-08,0.0,0.0,0.0,8.999999999999999e-08,0.0,0.0,0.0,8.999999999999999e-08
1676469335.1224625,10882,1676469334,874269248,base_link,0.010583574154911624,0.10361502936943269,-0.0037565064609273962,-0.9945541464427878,1.0,0.0,0.0,0.0,1.0,0.0,0.0,0.0,1.0,0.0002762754447758198,-0.0003401171416044236,-0.0002799287904053926,1.2184696791468346e-07,0.0,0.0,0.0,1.2184696791468346e-07,0.0,0.0,0.0,1.2184696791468346e-07,2.0107743740081787,-0.21340993046760443,9.573800086975098,8.999999999999999e-08,0.0,0.0,0.0,8.999999999999999e-08,0.0,0.0,0.0,8.999999999999999e-08
1676469335.122544,10883,1676469334,895269248,base_link,0.010597113829995753,0.10361487131875079,-0.003753387594137577,-0.9945539778553938,1.0,0.0,0.0,0.0,1.0,0.0,0.0,0.0,1.0,-0.0010128647554665804,-0.0011544916778802872,0.00010963794193230583,1.2184696791468346e-07,0.0,0.0,0.0,1.2184696791468346e-07,0.0,0.0,0.0,1.2184696791468346e-07,2.0371463298797607,-0.2133627831935871,9.587136268615723,8.999999999999999e-08,0.0,0.0,0.0,8.999999999999999e-08,0.0,0.0,0.0,8.999999999999999e-08
1676469335.1226213,10884,1676469334,914269248,base_link,0.010602266282226205,0.10361743173979782,-0.0037538090626226864,-0.9945536406806057,1.0,0.0,0.0,0.0,1.0,0.0,0.0,0.0,1.0,-0.0022954170126467943,-0.0003352960338816045,0.001262374222278595,1.2184696791468346e-07,0.0,0.0,0.0,1.2184696791468346e-07,0.0,0.0,0.0,1.2184696791468346e-07,2.0337986946105957,-0.21204456686973455,9.589361190795898,8.999999999999999e-08,0.0,0.0,0.0,8.999999999999999e-08,0.0,0.0,0.0,8.999999999999999e-08
1676469335.1227143,10885,1676469334,929269248,base_link,0.01059052838491592,0.10361687329405504,-0.003750310874196269,-0.9945538514148483,1.0,0.0,0.0,0.0,1.0,0.0,0.0,0.0,1.0,-0.0012106227222830057,0.0004081284860149027,0.0009490442462265491,1.2184696791468346e-07,0.0,0.0,0.0,1.2184696791468346e-07,0.0,0.0,0.0,1.2184696791468346e-07,2.0274457931518555,-0.20866960287094,9.605947494506836,8.999999999999999e-08,0.0,0.0,0.0,8.999999999999999e-08,0.0,0.0,0.0,8.999999999999999e-08
1676469335.1227815,10886,1676469334,954269248,base_link,0.010589543202331981,0.10361655192433515,-0.0037500579931052033,-0.9945539357085453,1.0,0.0,0.0,0.0,1.0,0.0,0.0,0.0,1.0,0.0022350470535457134,0.001444640220142901,-4.5688968384638605e-05,1.2184696791468346e-07,0.0,0.0,0.0,1.2184696791468346e-07,0.0,0.0,0.0,1.2184696791468346e-07,2.031088352203369,-0.23504880070686224,9.602948188781738,8.999999999999999e-08,0.0,0.0,0.0,8.999999999999999e-08,0.0,0.0,0.0,8.999999999999999e-08
1676469335.1385956,10887,1676469334,974271808,base_link,0.010594416431691055,0.10362257365531614,-0.003747276301103526,-0.994553261358969,1.0,0.0,0.0,0.0,1.0,0.0,0.0,0.0,1.0,0.0014847484417259693,-0.0005861512618139386,-0.0001881023490568622,1.2184696791468346e-07,0.0,0.0,0.0,1.2184696791468346e-07,0.0,0.0,0.0,1.2184696791468346e-07,2.014718532562256,-0.21160063147544744,9.61123275756836,8.999999999999999e-08,0.0,0.0,0.0,8.999999999999999e-08,0.0,0.0,0.0,8.999999999999999e-08
1676469335.1485457,10888,1676469334,995271808,base_link,0.010599848106792892,0.10362701487947798,-0.003750353021044776,-0.9945527134499385,1.0,0.0,0.0,0.0,1.0,0.0,0.0,0.0,1.0,-0.002559180837124586,-0.0004421973135322331,0.0014132206561043859,1.2184696791468346e-07,0.0,0.0,0.0,1.2184696791468346e-07,0.0,0.0,0.0,1.2184696791468346e-07,2.0362164974212646,-0.20653253793716314,9.596810340881348,8.999999999999999e-08,0.0,0.0,0.0,8.999999999999999e-08,0.0,0.0,0.0,8.999999999999999e-08
1676469335.1486273,10889,1676469335,14271808,base_link,0.010590528384915922,0.1036257873525151,-0.0037470655668609696,-0.9945529663310295,1.0,0.0,0.0,0.0,1.0,0.0,0.0,0.0,1.0,-0.0009087552316486835,5.4399948567151956e-05,-0.0005457919905893505,1.2184696791468346e-07,0.0,0.0,0.0,1.2184696791468346e-07,0.0,0.0,0.0,1.2184696791468346e-07,2.0260560512542725,-0.23415771126747015,9.600797653198242,8.999999999999999e-08,0.0,0.0,0.0,8.999999999999999e-08,0.0,0.0,0.0,8.999999999999999e-08
1676469335.1486442,10890,1676469335,34271808,base_link,0.01059416355059999,0.10362283707311934,-0.0037435252315860413,-0.9945532192121206,1.0,0.0,0.0,0.0,1.0,0.0,0.0,0.0,1.0,-0.0011214737314730883,0.0006916361162438991,0.0013943227240815759,1.2184696791468346e-07,0.0,0.0,0.0,1.2184696791468346e-07,0.0,0.0,0.0,1.2184696791468346e-07,2.0420658588409424,-0.20655140280723455,9.59248161315918,8.999999999999999e-08,0.0,0.0,0.0,8.999999999999999e-08,0.0,0.0,0.0,8.999999999999999e-08
1676469335.1486552,10891,1676469335,54271808,base_link,0.01059868380010278,0.10362476529143871,-0.0037448739307383945,-0.9945529663310295,1.0,0.0,0.0,0.0,1.0,0.0,0.0,0.0,1.0,0.0002164267934858799,-0.0003359375987201928,0.0009052419336512685,1.2184696791468346e-07,0.0,0.0,0.0,1.2184696791468346e-07,0.0,0.0,0.0,1.2184696791468346e-07,2.0256829261779785,-0.2091096937656391,9.592557907104492,8.999999999999999e-08,0.0,0.0,0.0,8.999999999999999e-08,0.0,0.0,0.0,8.999999999999999e-08
1676469335.1486673,10892,1676469335,74273856,base_link,0.010597235002185219,0.10362810016082714,-0.0037394791341289774,-0.9945526291562414,1.0,0.0,0.0,0.0,1.0,0.0,0.0,0.0,1.0,0.00332541111856699,-6.267800927161994e-06,0.0014363600639626384,1.2184696791468346e-07,0.0,0.0,0.0,1.2184696791468346e-07,0.0,0.0,0.0,1.2184696791468346e-07,2.0422511100769043,-0.20580056309699896,9.590906143188477,8.999999999999999e-08,0.0,0.0,0.0,8.999999999999999e-08,0.0,0.0,0.0,8.999999999999999e-08
1676469335.1486928,10893,1676469335,94273856,base_link,0.010589564275756237,0.10363402179304292,-0.003743314497343482,-0.9945521655409078,1.0,0.0,0.0,0.0,1.0,0.0,0.0,0.0,1.0,-1.652166247367859e-05,-0.0009176568128168582,0.00046613733866252016,1.2184696791468346e-07,0.0,0.0,0.0,1.2184696791468346e-07,0.0,0.0,0.0,1.2184696791468346e-07,2.0318942070007324,-0.22115606069564703,9.592577934265137,8.999999999999999e-08,0.0,0.0,0.0,8.999999999999999e-08,0.0,0.0,0.0,8.999999999999999e-08
1676469335.148809,10894,1676469335,114273856,base_link,0.010585512909943124,0.10363227796718578,-0.0037446631964958366,-0.9945523341283018,1.0,0.0,0.0,0.0,1.0,0.0,0.0,0.0,1.0,0.0024706250987946987,0.0021180198527872562,0.0012912276433780787,1.2184696791468346e-07,0.0,0.0,0.0,1.2184696791468346e-07,0.0,0.0,0.0,1.2184696791468346e-07,2.0241663455963135,-0.22683331370353582,9.589631080627441,8.999999999999999e-08,0.0,0.0,0.0,8.999999999999999e-08,0.0,0.0,0.0,8.999999999999999e-08
1676469335.1489794,10895,1676469335,134273856,base_link,0.010586350578557276,0.10363642416340804,-0.0037487514408014078,-0.9945518705129682,1.0,0.0,0.0,0.0,1.0,0.0,0.0,0.0,1.0,0.0015384601429104805,-0.0009641132201068104,-0.0008340087952092289,1.2184696791468346e-07,0.0,0.0,0.0,1.2184696791468346e-07,0.0,0.0,0.0,1.2184696791468346e-07,2.0341427326202393,-0.20370402932166937,9.586005210876465,8.999999999999999e-08,0.0,0.0,0.0,8.999999999999999e-08,0.0,0.0,0.0,8.999999999999999e-08
1676469335.157586,10896,1676469335,154273856,base_link,0.010598430919011715,0.10363723022188581,-0.003757517985291652,-0.9945516176318772,1.0,0.0,0.0,0.0,1.0,0.0,0.0,0.0,1.0,-0.0025653732009232044,-0.0002478169044479727,0.000588645227253437,1.2184696791468346e-07,0.0,0.0,0.0,1.2184696791468346e-07,0.0,0.0,0.0,1.2184696791468346e-07,2.0197689533233643,-0.22437539696693304,9.599692344665527,8.999999999999999e-08,0.0,0.0,0.0,8.999999999999999e-08,0.0,0.0,0.0,8.999999999999999e-08
1676469335.1793113,10897,1676469335,174275136,base_link,0.010592182648719976,0.10363322627127727,-0.0037567171951699437,-0.9945521655409078,1.0,0.0,0.0,0.0,1.0,0.0,0.0,0.0,1.0,-0.002465536119416356,0.00035457813646644354,-0.00013266221503727143,1.2184696791468346e-07,0.0,0.0,0.0,1.2184696791468346e-07,0.0,0.0,0.0,1.2184696791468346e-07,2.021759510040283,-0.21808362007140997,9.604382514953613,8.999999999999999e-08,0.0,0.0,0.0,8.999999999999999e-08,0.0,0.0,0.0,8.999999999999999e-08
1676469335.197418,10898,1676469335,194275136,base_link,0.010591334443393694,0.10363603430505931,-0.0037594567403231613,-0.9945518705129682,1.0,0.0,0.0,0.0,1.0,0.0,0.0,0.0,1.0,0.00215248204767704,0.0003733790945261718,0.0009475824190303683,1.2184696791468346e-07,0.0,0.0,0.0,1.2184696791468346e-07,0.0,0.0,0.0,1.2184696791468346e-07,2.0242650508880615,-0.22295078635215643,9.602721214294434,8.999999999999999e-08,0.0,0.0,0.0,8.999999999999999e-08,0.0,0.0,0.0,8.999999999999999e-08
1676469335.2184877,10899,1676469335,214275136,base_link,0.010592667337477851,0.10364365761628372,-0.0037576444258371824,-0.9945509854291494,1.0,0.0,0.0,0.0,1.0,0.0,0.0,0.0,1.0,0.0011773393489420414,0.00015826884191483262,0.00015977359726093707,1.2184696791468346e-07,0.0,0.0,0.0,1.2184696791468346e-07,0.0,0.0,0.0,1.2184696791468346e-07,2.05275559425354,-0.2154238820075977,9.585384368896484,8.999999999999999e-08,0.0,0.0,0.0,8.999999999999999e-08,0.0,0.0,0.0,8.999999999999999e-08
1676469335.2375197,10900,1676469335,234275136,base_link,0.010596307771517977,0.10364286209451808,-0.003759836061959758,-0.9945510697228466,1.0,0.0,0.0,0.0,1.0,0.0,0.0,0.0,1.0,-0.002723915968090296,0.0005522366845980287,0.0004181601980235427,1.2184696791468346e-07,0.0,0.0,0.0,1.2184696791468346e-07,0.0,0.0,0.0,1.2184696791468346e-07,2.0266988277435303,-0.1952564120292652,9.57565689086914,8.999999999999999e-08,0.0,0.0,0.0,8.999999999999999e-08,0.0,0.0,0.0,8.999999999999999e-08
1676469335.2574222,10901,1676469335,254275136,base_link,0.010599105268587889,0.10364377352011712,-0.003766453117175938,-0.994550943282301,1.0,0.0,0.0,0.0,1.0,0.0,0.0,0.0,1.0,-0.0003429437056183815,-0.0006515614222735164,0.001365729491226375,1.2184696791468346e-07,0.0,0.0,0.0,1.2184696791468346e-07,0.0,0.0,0.0,1.2184696791468346e-07,2.0093798637390137,-0.23133054375648382,9.587560653686523,8.999999999999999e-08,0.0,0.0,0.0,8.999999999999999e-08,0.0,0.0,0.0,8.999999999999999e-08
1676469335.2953336,10902,1676469335,289275136,base_link,0.0106343979858597,0.10362292663517243,-0.0038161863984188292,-0.9945525448625444,1.0,0.0,0.0,0.0,1.0,0.0,0.0,0.0,1.0,-0.020999819040298462,0.04501824453473091,0.023616297170519822,1.2184696791468346e-07,0.0,0.0,0.0,1.2184696791468346e-07,0.0,0.0,0.0,1.2184696791468346e-07,2.02240252494812,-0.21581515669822576,9.599647521972656,8.999999999999999e-08,0.0,0.0,0.0,8.999999999999999e-08,0.0,0.0,0.0,8.999999999999999e-08
1676469335.3126109,10903,1676469335,309275136,base_link,0.01055523039928805,0.1036457017384365,-0.004001042475987609,-0.9945502689327248,1.0,0.0,0.0,0.0,1.0,0.0,0.0,0.0,1.0,0.05825556442141533,-0.027142984792590138,0.027058625593781475,1.2184696791468346e-07,0.0,0.0,0.0,1.2184696791468346e-07,0.0,0.0,0.0,1.2184696791468346e-07,2.7777929306030273,0.09092575311660879,9.162338256835938,8.999999999999999e-08,0.0,0.0,0.0,8.999999999999999e-08,0.0,0.0,0.0,8.999999999999999e-08
1676469335.334075,10904,1676469335,329275136,base_link,0.010352604156715864,0.10379217784208004,-0.0038039216655021634,-0.9945378356124142,1.0,0.0,0.0,0.0,1.0,0.0,0.0,0.0,1.0,0.0037418236024677753,-0.03412098437547684,-0.020128259435296055,1.2184696791468346e-07,0.0,0.0,0.0,1.2184696791468346e-07,0.0,0.0,0.0,1.2184696791468346e-07,1.9595856666564941,-0.4857436716556538,9.04474925994873,8.999999999999999e-08,0.0,0.0,0.0,8.999999999999999e-08,0.0,0.0,0.0,8.999999999999999e-08
1676469335.351802,10905,1676469335,349275136,base_link,0.00998216496844149,0.10408573064195843,-0.003974279227183206,-0.9945103558671851,1.0,0.0,0.0,0.0,1.0,0.0,0.0,0.0,1.0,0.04686262458562851,-0.028031827881932255,0.026165552437305454,1.2184696791468346e-07,0.0,0.0,0.0,1.2184696791468346e-07,0.0,0.0,0.0,1.2184696791468346e-07,1.7179666757583618,-0.13864019513130071,9.607133865356445,8.999999999999999e-08,0.0,0.0,0.0,8.999999999999999e-08,0.0,0.0,0.0,8.999999999999999e-08
1676469335.3727288,10906,1676469335,369277440,base_link,0.009543094905723182,0.10438955146780528,-0.003589899968763843,-0.9944842248211082,1.0,0.0,0.0,0.0,1.0,0.0,0.0,0.0,1.0,0.0830763578414917,-0.011805649846792226,-0.046352729201316833,1.2184696791468346e-07,0.0,0.0,0.0,1.2184696791468346e-07,0.0,0.0,0.0,1.2184696791468346e-07,2.199775457382202,-0.20429965853690985,9.446282386779785,8.999999999999999e-08,0.0,0.0,0.0,8.999999999999999e-08,0.0,0.0,0.0,8.999999999999999e-08
1676469335.3952584,10907,1676469335,389277440,base_link,0.0088255026629767,0.10397742904635363,-0.003276496003236799,-0.9945351382141094,1.0,0.0,0.0,0.0,1.0,0.0,0.0,0.0,1.0,0.06908590346574783,0.11828407645225525,0.010530361905693994,1.2184696791468346e-07,0.0,0.0,0.0,1.2184696791468346e-07,0.0,0.0,0.0,1.2184696791468346e-07,2.5757875442504883,-0.3908003866672504,9.599305152893066,8.999999999999999e-08,0.0,0.0,0.0,8.999999999999999e-08,0.0,0.0,0.0,8.999999999999999e-08
1676469335.412762,10908,1676469335,409277440,base_link,0.007796619065484821,0.1013556053093925,-0.003921679960241593,-0.994812043008826,1.0,0.0,0.0,0.0,1.0,0.0,0.0,0.0,1.0,0.174129918217659,0.3608090281486511,0.0773869082331657,1.2184696791468346e-07,0.0,0.0,0.0,1.2184696791468346e-07,0.0,0.0,0.0,1.2184696791468346e-07,2.479949474334717,-0.6940050125122058,10.365667343139648,8.999999999999999e-08,0.0,0.0,0.0,8.999999999999999e-08,0.0,0.0,0.0,8.999999999999999e-08
1676469335.4318647,10909,1676469335,429277440,base_link,0.006799738096902864,0.0938131027644701,-0.0051769816962900506,-0.9955531531930416,1.0,0.0,0.0,0.0,1.0,0.0,0.0,0.0,1.0,-0.019165009260177612,1.046967625617981,0.21356230974197374,1.2184696791468346e-07,0.0,0.0,0.0,1.2184696791468346e-07,0.0,0.0,0.0,1.2184696791468346e-07,4.134603977203369,0.4821539223194134,9.495466232299805,8.999999999999999e-08,0.0,0.0,0.0,8.999999999999999e-08,0.0,0.0,0.0,8.999999999999999e-08
1676469335.452488,10910,1676469335,449277440,base_link,0.006393218572125132,0.08250867788858655,-0.006808359761601196,-0.9965465965592918,1.0,0.0,0.0,0.0,1.0,0.0,0.0,0.0,1.0,0.10593629628419876,1.2112038135528564,0.1512537300586699,1.2184696791468346e-07,0.0,0.0,0.0,1.2184696791468346e-07,0.0,0.0,0.0,1.2184696791468346e-07,3.492220640182495,-0.3872213065624225,9.749619483947754,8.999999999999999e-08,0.0,0.0,0.0,8.999999999999999e-08,0.0,0.0,0.0,8.999999999999999e-08
1676469335.473147,10911,1676469335,469279744,base_link,0.006437348956694071,0.06974795295610609,-0.008151074061461252,-0.99751066357213,1.0,0.0,0.0,0.0,1.0,0.0,0.0,0.0,1.0,-0.04098761826753616,1.4134403467178345,0.20108875632286055,1.2184696791468346e-07,0.0,0.0,0.0,1.2184696791468346e-07,0.0,0.0,0.0,1.2184696791468346e-07,3.774894952774048,0.6007187366485606,8.594622611999512,8.999999999999999e-08,0.0,0.0,0.0,8.999999999999999e-08,0.0,0.0,0.0,8.999999999999999e-08
1676469335.495181,10912,1676469335,489279744,base_link,0.0075910530802289974,0.05619358179274123,-0.009961660526640837,-0.9983413358094312,1.0,0.0,0.0,0.0,1.0,0.0,0.0,0.0,1.0,-0.11318603903055191,1.3250937461853027,0.1809555441141127,1.2184696791468346e-07,0.0,0.0,0.0,1.2184696791468346e-07,0.0,0.0,0.0,1.2184696791468346e-07,1.792014241218567,0.20283785462379572,9.538050651550293,8.999999999999999e-08,0.0,0.0,0.0,8.999999999999999e-08,0.0,0.0,0.0,8.999999999999999e-08
1676469335.513573,10913,1676469335,509279744,base_link,0.008914339000014553,0.0428158441202185,-0.01142331323299859,-0.9989779218093398,1.0,0.0,0.0,0.0,1.0,0.0,0.0,0.0,1.0,-0.10728492587804794,1.3135722875595093,0.16584002971649153,1.2184696791468346e-07,0.0,0.0,0.0,1.2184696791468346e-07,0.0,0.0,0.0,1.2184696791468346e-07,1.7533634901046753,0.20953649282455555,9.168265342712402,8.999999999999999e-08,0.0,0.0,0.0,8.999999999999999e-08,0.0,0.0,0.0,8.999999999999999e-08
1676469335.5352063,10914,1676469335,529279744,base_link,0.010383266647552042,0.03118237155402082,-0.013076860540626475,-0.9993742286258878,1.0,0.0,0.0,0.0,1.0,0.0,0.0,0.0,1.0,-0.16401666402816772,1.0185294151306152,0.1790415197610854,1.2184696791468346e-07,0.0,0.0,0.0,1.2184696791468346e-07,0.0,0.0,0.0,1.2184696791468346e-07,-0.2852068245410919,-0.14361044764518618,9.819962501525879,8.999999999999999e-08,0.0,0.0,0.0,8.999999999999999e-08,0.0,0.0,0.0,8.999999999999999e-08
1676469335.5530145,10915,1676469335,549279744,base_link,0.011456778159988641,0.02210848467115158,-0.014488527084650375,-0.9995849628684422,1.0,0.0,0.0,0.0,1.0,0.0,0.0,0.0,1.0,-0.05659298971295357,0.757567286491394,0.10490671545267095,1.2184696791468346e-07,0.0,0.0,0.0,1.2184696791468346e-07,0.0,0.0,0.0,1.2184696791468346e-07,-0.636554479598999,-0.5437939167022693,9.784052848815918,8.999999999999999e-08,0.0,0.0,0.0,8.999999999999999e-08,0.0,0.0,0.0,8.999999999999999e-08
1676469335.5752847,10916,1676469335,569281792,base_link,0.011525540578698038,0.015960861218291683,-0.015310854245946416,-0.9996890234374156,1.0,0.0,0.0,0.0,1.0,0.0,0.0,0.0,1.0,-0.05478730797767639,0.45650017261505127,0.04171415418386454,1.2184696791468346e-07,0.0,0.0,0.0,1.2184696791468346e-07,0.0,0.0,0.0,1.2184696791468346e-07,-0.751943826675415,-0.878840386867522,9.834593772888184,8.999999999999999e-08,0.0,0.0,0.0,8.999999999999999e-08,0.0,0.0,0.0,8.999999999999999e-08
1676469335.592766,10917,1676469335,589281792,base_link,0.011003238886613198,0.012433158967309345,-0.015602383997096347,-0.9997404847394473,1.0,0.0,0.0,0.0,1.0,0.0,0.0,0.0,1.0,0.1279878467321396,0.23602208495140076,0.033586185425519915,1.2184696791468346e-07,0.0,0.0,0.0,1.2184696791468346e-07,0.0,0.0,0.0,1.2184696791468346e-07,-0.9903538823127747,-0.8260832428932178,9.990248680114746,8.999999999999999e-08,0.0,0.0,0.0,8.999999999999999e-08,0.0,0.0,0.0,8.999999999999999e-08
1676469335.6131039,10918,1676469335,609281792,base_link,0.010003446286966294,0.01091122396103047,-0.015007312642971001,-0.9997777847003796,1.0,0.0,0.0,0.0,1.0,0.0,0.0,0.0,1.0,0.10186583548784256,0.08245747536420821,-0.14460457861423492,1.2184696791468346e-07,0.0,0.0,0.0,1.2184696791468346e-07,0.0,0.0,0.0,1.2184696791468346e-07,-0.6873934864997864,0.10104232281446576,9.764817237854004,8.999999999999999e-08,0.0,0.0,0.0,8.999999999999999e-08,0.0,0.0,0.0,8.999999999999999e-08
1676469335.6335664,10919,1676469335,629281792,base_link,0.009182925225142415,0.011006035560502472,-0.014357323945235936,-0.9997942219712987,1.0,0.0,0.0,0.0,1.0,0.0,0.0,0.0,1.0,0.04035889729857445,-0.08346456289291382,-0.006995189469307651,1.2184696791468346e-07,0.0,0.0,0.0,1.2184696791468346e-07,0.0,0.0,0.0,1.2184696791468346e-07,-0.7924119830131531,-0.2778623700141895,9.537471771240234,8.999999999999999e-08,0.0,0.0,0.0,8.999999999999999e-08,0.0,0.0,0.0,8.999999999999999e-08
1676469335.655888,10920,1676469335,649281792,base_link,0.008697615130523853,0.012115834192417935,-0.013812702368778235,-0.9997934633280255,1.0,0.0,0.0,0.0,1.0,0.0,0.0,0.0,1.0,0.07542040199041367,-0.13675372302532196,-0.09516420960426329,1.2184696791468346e-07,0.0,0.0,0.0,1.2184696791468346e-07,0.0,0.0,0.0,1.2184696791468346e-07,-0.6585094332695007,-0.1441328525543201,9.660492897033691,8.999999999999999e-08,0.0,0.0,0.0,8.999999999999999e-08,0.0,0.0,0.0,8.999999999999999e-08
1676469335.6727343,10921,1676469335,669283584,base_link,0.00852621575143119,0.013549988714300413,-0.013367842382745672,-0.9997825472942612,1.0,0.0,0.0,0.0,1.0,0.0,0.0,0.0,1.0,-0.045335590839385986,-0.16837665438652039,-0.04436908662319181,1.2184696791468346e-07,0.0,0.0,0.0,1.2184696791468346e-07,0.0,0.0,0.0,1.2184696791468346e-07,0.2769623100757599,0.32506394386291626,9.809380531311035,8.999999999999999e-08,0.0,0.0,0.0,8.999999999999999e-08,0.0,0.0,0.0,8.999999999999999e-08
1676469335.6948428,10922,1676469335,689283584,base_link,0.008383026937335364,0.014821776618197847,-0.013124444332595353,-0.9997688495684952,1.0,0.0,0.0,0.0,1.0,0.0,0.0,0.0,1.0,0.027201002463698387,-0.08343297988176346,-0.0012163114733993905,1.2184696791468346e-07,0.0,0.0,0.0,1.2184696791468346e-07,0.0,0.0,0.0,1.2184696791468346e-07,0.33936381340026855,-0.46780484914779547,9.617165565490723,8.999999999999999e-08,0.0,0.0,0.0,8.999999999999999e-08,0.0,0.0,0.0,8.999999999999999e-08
1676469335.7153263,10923,1676469335,709283584,base_link,0.00823634405071631,0.015640182805493372,-0.01288197351311208,-0.9997607995204296,1.0,0.0,0.0,0.0,1.0,0.0,0.0,0.0,1.0,0.048845209181308746,-0.09027934819459915,0.015340590849518786,1.2184696791468346e-07,0.0,0.0,0.0,1.2184696791468346e-07,0.0,0.0,0.0,1.2184696791468346e-07,0.35631945729255676,0.4312674701213849,10.132135391235352,8.999999999999999e-08,0.0,0.0,0.0,8.999999999999999e-08,0.0,0.0,0.0,8.999999999999999e-08
1676469335.7330878,10924,1676469335,729283584,base_link,0.00782981497704321,0.01586544355207718,-0.012715240580403,-0.9997626539817641,1.0,0.0,0.0,0.0,1.0,0.0,0.0,0.0,1.0,0.05765634775161743,-0.006813277024775743,0.00998357217758894,1.2184696791468346e-07,0.0,0.0,0.0,1.2184696791468346e-07,0.0,0.0,0.0,1.2184696791468346e-07,-0.2812478840351105,-0.9004212617874132,10.461798667907715,8.999999999999999e-08,0.0,0.0,0.0,8.999999999999999e-08,0.0,0.0,0.0,8.999999999999999e-08
1676469335.7534819,10925,1676469335,749283584,base_link,0.007667960871321504,0.015492008974108244,-0.01281306341579686,-0.9997685123937071,1.0,0.0,0.0,0.0,1.0,0.0,0.0,0.0,1.0,0.006982939783483744,0.09242504090070724,0.02373944967985152,1.2184696791468346e-07,0.0,0.0,0.0,1.2184696791468346e-07,0.0,0.0,0.0,1.2184696791468346e-07,-0.24439263343811035,-0.33951053023338196,10.0253324508667,8.999999999999999e-08,0.0,0.0,0.0,8.999999999999999e-08,0.0,0.0,0.0,8.999999999999999e-08
1676469335.772437,10926,1676469335,769285632,base_link,0.007153360363349139,0.01455650764639282,-0.01279152637620778,-0.9997866776854153,1.0,0.0,0.0,0.0,1.0,0.0,0.0,0.0,1.0,0.15961001813411713,0.15561330318450928,-0.036516230553388616,1.2184696791468346e-07,0.0,0.0,0.0,1.2184696791468346e-07,0.0,0.0,0.0,1.2184696791468346e-07,0.97597336769104,-0.477391093969344,9.27711296081543,8.999999999999999e-08,0.0,0.0,0.0,8.999999999999999e-08,0.0,0.0,0.0,8.999999999999999e-08
1676469335.7959917,10927,1676469335,789285632,base_link,0.006446839900143117,0.013472153198632285,-0.012644981783935411,-0.9998085518997925,1.0,0.0,0.0,0.0,1.0,0.0,0.0,0.0,1.0,0.02958737127482891,0.08187834173440933,-0.032104227691888816,1.2184696791468346e-07,0.0,0.0,0.0,1.2184696791468346e-07,0.0,0.0,0.0,1.2184696791468346e-07,-0.14227840304374695,0.4705197513103498,10.216261863708496,8.999999999999999e-08,0.0,0.0,0.0,8.999999999999999e-08,0.0,0.0,0.0,8.999999999999999e-08
1676469335.8159783,10928,1676469335,809285632,base_link,0.006327580123925479,0.012507565935632788,-0.012679289318623242,-0.9998214488354369,1.0,0.0,0.0,0.0,1.0,0.0,0.0,0.0,1.0,-0.2653651833534241,0.028437307104468356,0.09641966968774796,1.2184696791468346e-07,0.0,0.0,0.0,1.2184696791468346e-07,0.0,0.0,0.0,1.2184696791468346e-07,-0.35959452390670776,-0.01549109444022037,11.57153606414795,8.999999999999999e-08,0.0,0.0,0.0,8.999999999999999e-08,0.0,0.0,0.0,8.999999999999999e-08
1676469335.833049,10929,1676469335,829285632,base_link,0.006475245888222697,0.011717916740639598,-0.012751908338607497,-0.9998290774150173,1.0,0.0,0.0,0.0,1.0,0.0,0.0,0.0,1.0,-0.09752123057842255,0.05780283734202385,-0.024359745904803283,1.2184696791468346e-07,0.0,0.0,0.0,1.2184696791468346e-07,0.0,0.0,0.0,1.2184696791468346e-07,0.054611124098300934,-0.6345348954200734,9.3120698928833,8.999999999999999e-08,0.0,0.0,0.0,8.999999999999999e-08,0.0,0.0,0.0,8.999999999999999e-08
1676469335.8536284,10930,1676469335,849285632,base_link,0.006001924431735833,0.010871122510602337,-0.01260266634803039,-0.9998435337840565,1.0,0.0,0.0,0.0,1.0,0.0,0.0,0.0,1.0,0.21819953620433807,0.10016614198684692,-0.007994160056114209,1.2184696791468346e-07,0.0,0.0,0.0,1.2184696791468346e-07,0.0,0.0,0.0,1.2184696791468346e-07,1.421549916267395,-0.11974696069955729,7.945761203765869,8.999999999999999e-08,0.0,0.0,0.0,8.999999999999999e-08,0.0,0.0,0.0,8.999999999999999e-08
1676469335.8745294,10931,1676469335,869287424,base_link,0.005426232066846928,0.010154849332505345,-0.012692860603843708,-0.999853227559214,1.0,0.0,0.0,0.0,1.0,0.0,0.0,0.0,1.0,-0.0734100416302681,0.029723027721047405,0.016045473515987393,1.2184696791468346e-07,0.0,0.0,0.0,1.2184696791468346e-07,0.0,0.0,0.0,1.2184696791468346e-07,0.16811171174049377,0.9479049444198621,9.893917083740234,8.999999999999999e-08,0.0,0.0,0.0,8.999999999999999e-08,0.0,0.0,0.0,8.999999999999999e-08
1676469335.8932595,10932,1676469335,889287424,base_link,0.005476132289122556,0.009655300188535179,-0.01281769956913298,-0.9998562621323068,1.0,0.0,0.0,0.0,1.0,0.0,0.0,0.0,1.0,-0.19373561441898346,-0.02733786031603813,-0.003966656513512131,1.2184696791468346e-07,0.0,0.0,0.0,1.2184696791468346e-07,0.0,0.0,0.0,1.2184696791468346e-07,0.10911092907190323,0.6261304020881666,10.81650447845459,8.999999999999999e-08,0.0,0.0,0.0,8.999999999999999e-08,0.0,0.0,0.0,8.999999999999999e-08
1676469335.9133213,10933,1676469335,909287424,base_link,0.0054641420046295875,0.009015031113829616,-0.013302978382887439,-0.9998560092512158,1.0,0.0,0.0,0.0,1.0,0.0,0.0,0.0,1.0,0.2375916987657547,0.09997343271970749,0.027571452781558023,1.2184696791468346e-07,0.0,0.0,0.0,1.2184696791468346e-07,0.0,0.0,0.0,1.2184696791468346e-07,0.9909058809280396,-1.1043330430984486,8.609101295471191,8.999999999999999e-08,0.0,0.0,0.0,8.999999999999999e-08,0.0,0.0,0.0,8.999999999999999e-08
1676469335.9345791,10934,1676469335,929287424,base_link,0.004475235351494797,0.00855675723471403,-0.013283843713663455,-0.9998651972641911,1.0,0.0,0.0,0.0,1.0,0.0,0.0,0.0,1.0,0.18728677928447723,0.01887756213545799,-0.02617467194795609,1.2184696791468346e-07,0.0,0.0,0.0,1.2184696791468346e-07,0.0,0.0,0.0,1.2184696791468346e-07,1.2891013622283936,0.27848911285400496,8.514914512634277,8.999999999999999e-08,0.0,0.0,0.0,8.999999999999999e-08,0.0,0.0,0.0,8.999999999999999e-08
1676469335.9527457,10935,1676469335,949287424,base_link,0.00398534475055096,0.008196034870654938,-0.013186821668391463,-0.9998715192914677,1.0,0.0,0.0,0.0,1.0,0.0,0.0,0.0,1.0,-0.052142973989248276,0.007085436023771762,-0.008706998080015184,1.2184696791468346e-07,0.0,0.0,0.0,1.2184696791468346e-07,0.0,0.0,0.0,1.2184696791468346e-07,-0.32006707787513733,0.24152719974517953,10.6988525390625,8.999999999999999e-08,0.0,0.0,0.0,8.999999999999999e-08,0.0,0.0,0.0,8.999999999999999e-08
1676469335.9735692,10936,1676469335,969289472,base_link,0.003594660422376053,0.00799503408056458,-0.013102738705612191,-0.9998757761231674,1.0,0.0,0.0,0.0,1.0,0.0,0.0,0.0,1.0,-0.0025199793744832277,0.0344390645623207,-0.05238741636276246,1.2184696791468346e-07,0.0,0.0,0.0,1.2184696791468346e-07,0.0,0.0,0.0,1.2184696791468346e-07,0.2361573576927185,-0.3298741579055774,9.888396263122559,8.999999999999999e-08,0.0,0.0,0.0,8.999999999999999e-08,0.0,0.0,0.0,8.999999999999999e-08
1676469335.9955807,10937,1676469335,989289472,base_link,8.432481324985221e-05,0.00544750898135534,-0.007919139954105809,-0.999953874233458,1.0,0.0,0.0,0.0,1.0,0.0,0.0,0.0,1.0,1.092820405960083,0.8374317288398742,-0.5772816538810731,1.2184696791468346e-07,0.0,0.0,0.0,1.2184696791468346e-07,0.0,0.0,0.0,1.2184696791468346e-07,0.880626380443573,-0.03323790431022546,7.962707996368408,8.999999999999999e-08,0.0,0.0,0.0,8.999999999999999e-08,0.0,0.0,0.0,8.999999999999999e-08
1676469336.0129888,10938,1676469336,8289472,base_link,-0.020825518138867145,-0.01174080906482597,-0.00425067825971758,-0.9997052078272437,1.0,0.0,0.0,0.0,1.0,0.0,0.0,0.0,1.0,3.315798044204712,2.6395349502563477,-0.004902677610516872,1.2184696791468346e-07,0.0,0.0,0.0,1.2184696791468346e-07,0.0,0.0,0.0,1.2184696791468346e-07,2.290170907974243,-3.006563901901244,10.538997650146484,8.999999999999999e-08,0.0,0.0,0.0,8.999999999999999e-08,0.0,0.0,0.0,8.999999999999999e-08
1676469336.0347679,10939,1676469336,28289472,base_link,-0.06391457163129562,-0.04277350563525565,-0.0023410888473860358,-0.9970356264425637,1.0,0.0,0.0,0.0,1.0,0.0,0.0,0.0,1.0,4.379234313964844,3.0801029205322266,-0.2827831804752354,1.2184696791468346e-07,0.0,0.0,0.0,1.2184696791468346e-07,0.0,0.0,0.0,1.2184696791468346e-07,3.003901958465576,-5.73776054382324,16.12147331237793,8.999999999999999e-08,0.0,0.0,0.0,8.999999999999999e-08,0.0,0.0,0.0,8.999999999999999e-08
1676469336.0557363,10940,1676469336,48289472,base_link,-0.09724873868223893,-0.06969685648773158,-0.000477903115264943,-0.9928166004660778,1.0,0.0,0.0,0.0,1.0,0.0,0.0,0.0,1.0,2.1258814334869385,2.190725803375244,0.002058470621704787,1.2184696791468346e-07,0.0,0.0,0.0,1.2184696791468346e-07,0.0,0.0,0.0,1.2184696791468346e-07,-0.37194159626960754,0.028904747217895935,19.06757164001465,8.999999999999999e-08,0.0,0.0,0.0,8.999999999999999e-08,0.0,0.0,0.0,8.999999999999999e-08
1676469336.0736322,10941,1676469336,68291520,base_link,-0.11170495757332777,-0.08555371525360263,-1.846031964768684e-05,-0.9900518093506115,1.0,0.0,0.0,0.0,1.0,0.0,0.0,0.0,1.0,0.9981536269187927,1.0289266109466553,-0.16035442054271712,1.2184696791468346e-07,0.0,0.0,0.0,1.2184696791468346e-07,0.0,0.0,0.0,1.2184696791468346e-07,-1.7487380504608154,3.1750197410583527,25.556957244873047,8.999999999999999e-08,0.0,0.0,0.0,8.999999999999999e-08,0.0,0.0,0.0,8.999999999999999e-08
1676469336.0919917,10942,1676469336,88291520,base_link,-0.12052340459044587,-0.09295232187226378,0.0012170745444491577,-0.9883484444680438,1.0,0.0,0.0,0.0,1.0,0.0,0.0,0.0,1.0,0.8616960644721985,0.49009770154953003,-0.09508898854255682,1.2184696791468346e-07,0.0,0.0,0.0,1.2184696791468346e-07,0.0,0.0,0.0,1.2184696791468346e-07,1.186928629875183,-0.2807164192199675,26.116413116455078,8.999999999999999e-08,0.0,0.0,0.0,8.999999999999999e-08,0.0,0.0,0.0,8.999999999999999e-08
1676469336.113248,10943,1676469336,108291520,base_link,-0.12467632982048765,-0.09556451373725114,0.002280270944984969,-0.9875819618810247,1.0,0.0,0.0,0.0,1.0,0.0,0.0,0.0,1.0,0.13479772210121155,0.10244131833314894,-0.10436799377202989,1.2184696791468346e-07,0.0,0.0,0.0,1.2184696791468346e-07,0.0,0.0,0.0,1.2184696791468346e-07,1.63681960105896,0.07966260612011267,25.439476013183594,8.999999999999999e-08,0.0,0.0,0.0,8.999999999999999e-08,0.0,0.0,0.0,8.999999999999999e-08
1676469336.1336982,10944,1676469336,128291520,base_link,-0.12365820025481113,-0.09482554118850849,0.0028543531685518418,-0.9877796727473893,1.0,0.0,0.0,0.0,1.0,0.0,0.0,0.0,1.0,-0.4084272086620331,-0.20500051975250244,-0.027365915477275824,1.2184696791468346e-07,0.0,0.0,0.0,1.2184696791468346e-07,0.0,0.0,0.0,1.2184696791468346e-07,1.7300834655761719,1.1320847272872951,22.060344696044922,8.999999999999999e-08,0.0,0.0,0.0,8.999999999999999e-08,0.0,0.0,0.0,8.999999999999999e-08
1676469336.1518042,10945,1676469336,148291520,base_link,-0.11690211048789742,-0.0921877727719201,0.0028457552114556335,-0.9888514671050213,1.0,0.0,0.0,0.0,1.0,0.0,0.0,0.0,1.0,-0.9795872569084167,-0.4064280390739441,-0.05728126317262645,1.2184696791468346e-07,0.0,0.0,0.0,1.2184696791468346e-07,0.0,0.0,0.0,1.2184696791468346e-07,0.8307592868804932,0.25877141952514865,17.597965240478516,8.999999999999999e-08,0.0,0.0,0.0,8.999999999999999e-08,0.0,0.0,0.0,8.999999999999999e-08
1676469336.1737149,10946,1676469336,168293568,base_link,-0.10333053089799447,-0.0849563001395734,0.002414930125977282,-0.991009301455082,1.0,0.0,0.0,0.0,1.0,0.0,0.0,0.0,1.0,-1.6885079145431519,-0.9469299912452698,-0.057267632335424305,1.2184696791468346e-07,0.0,0.0,0.0,1.2184696791468346e-07,0.0,0.0,0.0,1.2184696791468346e-07,-1.0704008340835571,0.4359259307384506,12.030841827392578,8.999999999999999e-08,0.0,0.0,0.0,8.999999999999999e-08,0.0,0.0,0.0,8.999999999999999e-08
1676469336.1950827,10947,1676469336,189293568,base_link,-0.08646035059989966,-0.07481563997167325,0.0022474385499949606,-0.9934395730339173,1.0,0.0,0.0,0.0,1.0,0.0,0.0,0.0,1.0,-1.7967519760131836,-1.0628955364227295,0.004180178046226632,1.2184696791468346e-07,0.0,0.0,0.0,1.2184696791468346e-07,0.0,0.0,0.0,1.2184696791468346e-07,-0.6035590767860413,0.8115559816360483,7.563140392303467,8.999999999999999e-08,0.0,0.0,0.0,8.999999999999999e-08,0.0,0.0,0.0,8.999999999999999e-08
1676469336.2132838,10948,1676469336,208293568,base_link,-0.06866069893687679,-0.06312907192524722,0.0019639588469107243,-0.9956387955892158,1.0,0.0,0.0,0.0,1.0,0.0,0.0,0.0,1.0,-1.847112774848938,-1.257615089416504,0.08041091263294235,1.2184696791468346e-07,0.0,0.0,0.0,1.2184696791468346e-07,0.0,0.0,0.0,1.2184696791468346e-07,0.6697163581848145,0.7638155221939094,5.729067802429199,8.999999999999999e-08,0.0,0.0,0.0,8.999999999999999e-08,0.0,0.0,0.0,8.999999999999999e-08
1676469336.2323358,10949,1676469336,228293568,base_link,-0.0502784059884758,-0.05051293731305267,0.001898209763233747,-0.9974553247600352,1.0,0.0,0.0,0.0,1.0,0.0,0.0,0.0,1.0,-1.8126181364059448,-1.3007806539535522,-0.008971255272626717,1.2184696791468346e-07,0.0,0.0,0.0,1.2184696791468346e-07,0.0,0.0,0.0,1.2184696791468346e-07,-0.06006232276558876,1.0967153310775761,4.1243510246276855,8.999999999999999e-08,0.0,0.0,0.0,8.999999999999999e-08,0.0,0.0,0.0,8.999999999999999e-08
1676469336.253995,10950,1676469336,248293568,base_link,-0.032040542963614,-0.037887569330629756,0.0018487715099304327,-0.9987665553640577,1.0,0.0,0.0,0.0,1.0,0.0,0.0,0.0,1.0,-1.7921217679977417,-1.2679115533828735,-0.013447975739836537,1.2184696791468346e-07,0.0,0.0,0.0,1.2184696791468346e-07,0.0,0.0,0.0,1.2184696791468346e-07,-0.11905156075954437,0.21847912669181865,3.3130948543548584,8.999999999999999e-08,0.0,0.0,0.0,8.999999999999999e-08,0.0,0.0,0.0,8.999999999999999e-08
1676469336.2723515,10951,1676469336,268295616,base_link,-0.014858248130138824,-0.025667719514901155,0.0018273187640384012,-0.9995584525007288,1.0,0.0,0.0,0.0,1.0,0.0,0.0,0.0,1.0,-1.6776469945907593,-1.2257251739501953,0.009151510894298704,1.2184696791468346e-07,0.0,0.0,0.0,1.2184696791468346e-07,0.0,0.0,0.0,1.2184696791468346e-07,-0.271899938583374,0.3558711111545568,4.23656702041626,8.999999999999999e-08,0.0,0.0,0.0,8.999999999999999e-08,0.0,0.0,0.0,8.999999999999999e-08
1676469336.2961473,10952,1676469336,288295616,base_link,0.0010504041734683087,-0.014236094462394976,0.0018611205365441604,-0.9998964702257862,1.0,0.0,0.0,0.0,1.0,0.0,0.0,0.0,1.0,-1.4751163721084595,-1.1513701677322388,-0.0928382426500319,1.2184696791468346e-07,0.0,0.0,0.0,1.2184696791468346e-07,0.0,0.0,0.0,1.2184696791468346e-07,-0.5940877199172974,-0.36193925142288164,3.6069865226745605,8.999999999999999e-08,0.0,0.0,0.0,8.999999999999999e-08,0.0,0.0,0.0,8.999999999999999e-08
1676469336.3129375,10953,1676469336,308295616,base_link,0.015299495670272893,-0.003551932243700615,0.002165842251277881,-0.9998743852771664,1.0,0.0,0.0,0.0,1.0,0.0,0.0,0.0,1.0,-1.3192994594573975,-1.139183759689331,-0.12480215728282915,1.2184696791468346e-07,0.0,0.0,0.0,1.2184696791468346e-07,0.0,0.0,0.0,1.2184696791468346e-07,-0.37741780281066895,-0.6774238348007197,4.916351795196533,8.999999999999999e-08,0.0,0.0,0.0,8.999999999999999e-08,0.0,0.0,0.0,8.999999999999999e-08
1676469336.333483,10954,1676469336,328295616,base_link,0.028479585696703797,0.006138645021674248,0.002425888306590093,-0.9995726138418285,1.0,0.0,0.0,0.0,1.0,0.0,0.0,0.0,1.0,-1.3377634286880493,-0.9091350436210632,0.0016590619925410668,1.2184696791468346e-07,0.0,0.0,0.0,1.2184696791468346e-07,0.0,0.0,0.0,1.2184696791468346e-07,1.3131015300750732,0.3779619932174689,4.89173698425293,8.999999999999999e-08,0.0,0.0,0.0,8.999999999999999e-08,0.0,0.0,0.0,8.999999999999999e-08
1676469336.3545158,10955,1676469336,348295616,base_link,0.04074396168225064,0.015439362621234324,0.002800742377245985,-0.9990464525850185,1.0,0.0,0.0,0.0,1.0,0.0,0.0,0.0,1.0,-1.2680412530899048,-0.8959869742393494,-0.03392037749290455,1.2184696791468346e-07,0.0,0.0,0.0,1.2184696791468346e-07,0.0,0.0,0.0,1.2184696791468346e-07,-1.4986557960510254,-0.9481937885284416,6.192245006561279,8.999999999999999e-08,0.0,0.0,0.0,8.999999999999999e-08,0.0,0.0,0.0,8.999999999999999e-08
1676469336.3720005,10956,1676469336,368297664,base_link,0.05257928406704559,0.024293812266603848,0.0031757228884474378,-0.9983161741408701,1.0,0.0,0.0,0.0,1.0,0.0,0.0,0.0,1.0,-1.1313616037368774,-0.8665292263031006,-0.047515675425529376,1.2184696791468346e-07,0.0,0.0,0.0,1.2184696791468346e-07,0.0,0.0,0.0,1.2184696791468346e-07,0.1487211436033249,-0.4709971249103538,7.020636558532715,8.999999999999999e-08,0.0,0.0,0.0,8.999999999999999e-08,0.0,0.0,0.0,8.999999999999999e-08
1676469336.394224,10957,1676469336,388297664,base_link,0.06395859599019889,0.03288969889889313,0.003700704033499141,-0.9974036105769124,1.0,0.0,0.0,0.0,1.0,0.0,0.0,0.0,1.0,-1.1114702224731445,-0.8372251987457275,-0.06395447254180898,1.2184696791468346e-07,0.0,0.0,0.0,1.2184696791468346e-07,0.0,0.0,0.0,1.2184696791468346e-07,0.4657600224018097,1.4819332361221325,9.15937614440918,8.999999999999999e-08,0.0,0.0,0.0,8.999999999999999e-08,0.0,0.0,0.0,8.999999999999999e-08
1676469336.4140995,10958,1676469336,408297664,base_link,0.07442260217006307,0.04097246608980851,0.004178649295612677,-0.9963759861165198,1.0,0.0,0.0,0.0,1.0,0.0,0.0,0.0,1.0,-1.0504759550094604,-0.8085376620292664,-0.08066008239984503,1.2184696791468346e-07,0.0,0.0,0.0,1.2184696791468346e-07,0.0,0.0,0.0,1.2184696791468346e-07,-0.1572474241256714,0.43595191836357233,9.447834968566895,8.999999999999999e-08,0.0,0.0,0.0,8.999999999999999e-08,0.0,0.0,0.0,8.999999999999999e-08
1676469336.432876,10959,1676469336,428297664,base_link,0.08422543493226867,0.04823927556190903,0.004584776327863627,-0.9952678611754713,1.0,0.0,0.0,0.0,1.0,0.0,0.0,0.0,1.0,-0.9664030075073242,-0.6685189008712769,-0.07354635000228874,1.2184696791468346e-07,0.0,0.0,0.0,1.2184696791468346e-07,0.0,0.0,0.0,1.2184696791468346e-07,-1.2953684329986572,-0.05513950809836267,9.835770606994629,8.999999999999999e-08,0.0,0.0,0.0,8.999999999999999e-08,0.0,0.0,0.0,8.999999999999999e-08
1676469336.4522943,10960,1676469336,448297664,base_link,0.09328430469545013,0.054066883427017896,0.005075239203984941,-0.9941575024514518,1.0,0.0,0.0,0.0,1.0,0.0,0.0,0.0,1.0,-0.9210869669914246,-0.5517038702964783,0.0508240498602391,1.2184696791468346e-07,0.0,0.0,0.0,1.2184696791468346e-07,0.0,0.0,0.0,1.2184696791468346e-07,-0.20823371410369873,0.7904964685440077,10.514540672302246,8.999999999999999e-08,0.0,0.0,0.0,8.999999999999999e-08,0.0,0.0,0.0,8.999999999999999e-08
1676469336.4734323,10961,1676469336,468299200,base_link,0.10124444167935599,0.05861824915781347,0.005742760990700445,-0.9931166438806267,1.0,0.0,0.0,0.0,1.0,0.0,0.0,0.0,1.0,-0.7867117524147034,-0.4069637954235077,-0.06571370363235468,1.2184696791468346e-07,0.0,0.0,0.0,1.2184696791468346e-07,0.0,0.0,0.0,1.2184696791468346e-07,-0.2193644493818283,-1.2313302755355822,10.737613677978516,8.999999999999999e-08,0.0,0.0,0.0,8.999999999999999e-08,0.0,0.0,0.0,8.999999999999999e-08
1676469336.4943006,10962,1676469336,488299200,base_link,0.10821568715665078,0.06219586463732547,0.006266519877145333,-0.992160205447369,1.0,0.0,0.0,0.0,1.0,0.0,0.0,0.0,1.0,-0.7409377098083496,-0.30979016423225403,-0.06710813939571376,1.2184696791468346e-07,0.0,0.0,0.0,1.2184696791468346e-07,0.0,0.0,0.0,1.2184696791468346e-07,0.07105113565921783,-0.9203424453735338,10.868083953857422,8.999999999999999e-08,0.0,0.0,0.0,8.999999999999999e-08,0.0,0.0,0.0,8.999999999999999e-08
1676469336.5140998,10963,1676469336,508299200,base_link,0.11410725286437493,0.06497782532520373,0.0068846455574060935,-0.9913173527708482,1.0,0.0,0.0,0.0,1.0,0.0,0.0,0.0,1.0,-0.5202609896659851,-0.2130047082901001,-0.07997321337461469,1.2184696791468346e-07,0.0,0.0,0.0,1.2184696791468346e-07,0.0,0.0,0.0,1.2184696791468346e-07,0.1967894434928894,-0.7371455430984484,10.436589241027832,8.999999999999999e-08,0.0,0.0,0.0,8.999999999999999e-08,0.0,0.0,0.0,8.999999999999999e-08
1676469336.5328255,10964,1676469336,528299200,base_link,0.118638284057853,0.06686582238020758,0.007296631001600093,-0.9906567009204399,1.0,0.0,0.0,0.0,1.0,0.0,0.0,0.0,1.0,-0.3576844036579132,-0.14735250174999237,-0.019212819635868055,1.2184696791468346e-07,0.0,0.0,0.0,1.2184696791468346e-07,0.0,0.0,0.0,1.2184696791468346e-07,0.5085980892181396,0.8060168623924268,9.762682914733887,8.999999999999999e-08,0.0,0.0,0.0,8.999999999999999e-08,0.0,0.0,0.0,8.999999999999999e-08
1676469336.5537672,10965,1676469336,548299200,base_link,0.12158385881165056,0.06772821538936931,0.007613743889796073,-0.9902385198895148,1.0,0.0,0.0,0.0,1.0,0.0,0.0,0.0,1.0,-0.2836638391017914,-0.04355925694108009,0.006744981743395334,1.2184696791468346e-07,0.0,0.0,0.0,1.2184696791468346e-07,0.0,0.0,0.0,1.2184696791468346e-07,-0.37159594893455505,-0.0011930149048554979,9.667081832885742,8.999999999999999e-08,0.0,0.0,0.0,8.999999999999999e-08,0.0,0.0,0.0,8.999999999999999e-08
1676469336.5726557,10966,1676469336,568301248,base_link,0.12302078712300066,0.06729286478603208,0.007997575239184783,-0.9900876763186943,1.0,0.0,0.0,0.0,1.0,0.0,0.0,0.0,1.0,-0.041149891912937164,0.12116935104131699,-0.022777808830142035,1.2184696791468346e-07,0.0,0.0,0.0,1.2184696791468346e-07,0.0,0.0,0.0,1.2184696791468346e-07,-0.06052425503730774,0.7029923796653758,8.441462516784668,8.999999999999999e-08,0.0,0.0,0.0,8.999999999999999e-08,0.0,0.0,0.0,8.999999999999999e-08
1676469336.5938706,10967,1676469336,588301248,base_link,0.12363643667591141,0.06608401941375475,0.008226264039204895,-0.9900906265980901,1.0,0.0,0.0,0.0,1.0,0.0,0.0,0.0,1.0,0.02381213568150997,0.17621664702892303,-0.007065818645060084,1.2184696791468346e-07,0.0,0.0,0.0,1.2184696791468346e-07,0.0,0.0,0.0,1.2184696791468346e-07,0.854448676109314,0.8060858249664318,9.191997528076172,8.999999999999999e-08,0.0,0.0,0.0,8.999999999999999e-08,0.0,0.0,0.0,8.999999999999999e-08
1676469336.6136134,10968,1676469336,608301248,base_link,0.12331261453626811,0.06454644706233867,0.008475646941843844,-0.9902302591072066,1.0,0.0,0.0,0.0,1.0,0.0,0.0,0.0,1.0,0.01827375218272209,0.11757306009531021,0.03220261633396147,1.2184696791468346e-07,0.0,0.0,0.0,1.2184696791468346e-07,0.0,0.0,0.0,1.2184696791468346e-07,0.00466223806142807,0.15010575950145827,8.653046607971191,8.999999999999999e-08,0.0,0.0,0.0,8.999999999999999e-08,0.0,0.0,0.0,8.999999999999999e-08
1676469336.6320913,10969,1676469336,628301248,base_link,0.12302225699434248,0.06308855332803243,0.008496636072402284,-0.9903601556943173,1.0,0.0,0.0,0.0,1.0,0.0,0.0,0.0,1.0,0.09422294050455093,0.1722313016653061,-0.03650369495153429,1.2184696791468346e-07,0.0,0.0,0.0,1.2184696791468346e-07,0.0,0.0,0.0,1.2184696791468346e-07,-0.783790111541748,-0.5198478102684011,8.403043746948242,8.999999999999999e-08,0.0,0.0,0.0,8.999999999999999e-08,0.0,0.0,0.0,8.999999999999999e-08
1676469336.6532469,10970,1676469336,648301248,base_link,0.12240660480725368,0.06118295996377528,0.008530227110665438,-0.9905556749245593,1.0,0.0,0.0,0.0,1.0,0.0,0.0,0.0,1.0,0.10571454465389252,0.18889087438583374,-0.03055789135396483,1.2184696791468346e-07,0.0,0.0,0.0,1.2184696791468346e-07,0.0,0.0,0.0,1.2184696791468346e-07,0.026906780898571014,-0.470940500497817,8.225093841552734,8.999999999999999e-08,0.0,0.0,0.0,8.999999999999999e-08,0.0,0.0,0.0,8.999999999999999e-08
1676469336.673304,10971,1676469336,668303296,base_link,0.12073736570108956,0.058839819091702286,0.008566431253536294,-0.9909021641661674,1.0,0.0,0.0,0.0,1.0,0.0,0.0,0.0,1.0,0.24038787186145782,0.28925296664237976,0.03956769406795498,1.2184696791468346e-07,0.0,0.0,0.0,1.2184696791468346e-07,0.0,0.0,0.0,1.2184696791468346e-07,0.5351419448852539,-0.5459094643592823,8.640387535095215,8.999999999999999e-08,0.0,0.0,0.0,8.999999999999999e-08,0.0,0.0,0.0,8.999999999999999e-08
1676469336.6917741,10972,1676469336,688303296,base_link,0.11805055679208072,0.05612155809699217,0.008430971282422288,-0.991384576994223,1.0,0.0,0.0,0.0,1.0,0.0,0.0,0.0,1.0,0.25400614738464355,0.27573734521865845,-0.012479340657591853,1.2184696791468346e-07,0.0,0.0,0.0,1.2184696791468346e-07,0.0,0.0,0.0,1.2184696791468346e-07,1.0116701126098633,-0.5620641708374012,9.392062187194824,8.999999999999999e-08,0.0,0.0,0.0,8.999999999999999e-08,0.0,0.0,0.0,8.999999999999999e-08
1676469336.7125409,10973,1676469336,708303296,base_link,0.1151372665242425,0.053138556941716944,0.008321937385324614,-0.9918924043719308,1.0,0.0,0.0,0.0,1.0,0.0,0.0,0.0,1.0,0.18387861549854279,0.2653162479400635,0.0918900445103645,1.2184696791468346e-07,0.0,0.0,0.0,1.2184696791468346e-07,0.0,0.0,0.0,1.2184696791468346e-07,0.3460563123226166,-0.7436794638633717,9.073577880859375,8.999999999999999e-08,0.0,0.0,0.0,8.999999999999999e-08,0.0,0.0,0.0,8.999999999999999e-08
1676469336.7344897,10974,1676469336,728303296,base_link,0.11265331829965067,0.050261657843389866,0.008180155386933964,-0.9923286242540186,1.0,0.0,0.0,0.0,1.0,0.0,0.0,0.0,1.0,0.32134267687797546,0.29581382870674133,-0.05646530166268352,1.2184696791468346e-07,0.0,0.0,0.0,1.2184696791468346e-07,0.0,0.0,0.0,1.2184696791468346e-07,-0.6274785995483398,-1.681543469429015,9.184144020080566,8.999999999999999e-08,0.0,0.0,0.0,8.999999999999999e-08,0.0,0.0,0.0,8.999999999999999e-08
1676469336.75157,10975,1676469336,748303296,base_link,0.10997358215865756,0.0474368153713298,0.007999513994216263,-0.9927697331705336,1.0,0.0,0.0,0.0,1.0,0.0,0.0,0.0,1.0,0.30089083313941956,0.28875765204429626,0.028106056153774227,1.2184696791468346e-07,0.0,0.0,0.0,1.2184696791468346e-07,0.0,0.0,0.0,1.2184696791468346e-07,-0.43358132243156433,-1.504183530807494,8.798462867736816,8.999999999999999e-08,0.0,0.0,0.0,8.999999999999999e-08,0.0,0.0,0.0,8.999999999999999e-08
1676469336.772597,10976,1676469336,768305344,base_link,0.10595904742279033,0.044196581462880455,0.007836700718418719,-0.9933569652108359,1.0,0.0,0.0,0.0,1.0,0.0,0.0,0.0,1.0,0.5068164467811584,0.3619445562362671,0.07306403666734691,1.2184696791468346e-07,0.0,0.0,0.0,1.2184696791468346e-07,0.0,0.0,0.0,1.2184696791468346e-07,0.9039227962493896,-0.7929686307907092,9.811861038208008,8.999999999999999e-08,0.0,0.0,0.0,8.999999999999999e-08,0.0,0.0,0.0,8.999999999999999e-08
1676469336.794025,10977,1676469336,788305344,base_link,0.10146173107394293,0.040792290946602465,0.0075209786762235956,-0.993974374394672,1.0,0.0,0.0,0.0,1.0,0.0,0.0,0.0,1.0,0.48035407066345215,0.357351690530777,0.024509834125637963,1.2184696791468346e-07,0.0,0.0,0.0,1.2184696791468346e-07,0.0,0.0,0.0,1.2184696791468346e-07,0.6211681365966797,-1.2235739231109608,9.552924156188965,8.999999999999999e-08,0.0,0.0,0.0,8.999999999999999e-08,0.0,0.0,0.0,8.999999999999999e-08
1676469336.8126597,10978,1676469336,808305344,base_link,0.09691256093053698,0.037159556608861326,0.007358713309456656,-0.9945717638254654,1.0,0.0,0.0,0.0,1.0,0.0,0.0,0.0,1.0,0.5309246778488159,0.3943653106689453,-0.03110266104340558,1.2184696791468346e-07,0.0,0.0,0.0,1.2184696791468346e-07,0.0,0.0,0.0,1.2184696791468346e-07,-0.23839060962200165,-1.3436626195907582,9.367229461669922,8.999999999999999e-08,0.0,0.0,0.0,8.999999999999999e-08,0.0,0.0,0.0,8.999999999999999e-08
1676469336.834614,10979,1676469336,828305344,base_link,0.09247818563158454,0.03344911665335626,0.0069683491985487395,-0.9951283551069002,1.0,0.0,0.0,0.0,1.0,0.0,0.0,0.0,1.0,0.4996044635772705,0.38814112544059753,0.05479308590292926,1.2184696791468346e-07,0.0,0.0,0.0,1.2184696791468346e-07,0.0,0.0,0.0,1.2184696791468346e-07,0.8983205556869507,0.4885882139205944,9.54975700378418,8.999999999999999e-08,0.0,0.0,0.0,8.999999999999999e-08,0.0,0.0,0.0,8.999999999999999e-08
1676469336.8542876,10980,1676469336,848305344,base_link,0.0874697676217357,0.029596423181592828,0.006624009446214766,-0.9957054297567114,1.0,0.0,0.0,0.0,1.0,0.0,0.0,0.0,1.0,0.5463786721229553,0.4022846221923828,0.022617675364017438,1.2184696791468346e-07,0.0,0.0,0.0,1.2184696791468346e-07,0.0,0.0,0.0,1.2184696791468346e-07,0.33191898465156555,0.6030431985855114,9.484219551086426,8.999999999999999e-08,0.0,0.0,0.0,8.999999999999999e-08,0.0,0.0,0.0,8.999999999999999e-08
1676469336.8720565,10981,1676469336,868307392,base_link,0.08172928519503293,0.02522340052318209,0.006356334811322061,-0.9963150839204216,1.0,0.0,0.0,0.0,1.0,0.0,0.0,0.0,1.0,0.5773418545722961,0.455110102891922,0.04061590507626528,1.2184696791468346e-07,0.0,0.0,0.0,1.2184696791468346e-07,0.0,0.0,0.0,1.2184696791468346e-07,-0.4684589207172394,-0.06264108419418223,9.193254470825195,8.999999999999999e-08,0.0,0.0,0.0,8.999999999999999e-08,0.0,0.0,0.0,8.999999999999999e-08
1676469336.894007,10982,1676469336,888307392,base_link,0.07564652821157321,0.02047678819957079,0.00611483336935463,-0.9969057298554531,1.0,0.0,0.0,0.0,1.0,0.0,0.0,0.0,1.0,0.7034301161766052,0.5051922798156738,0.022735839709639487,1.2184696791468346e-07,0.0,0.0,0.0,1.2184696791468346e-07,0.0,0.0,0.0,1.2184696791468346e-07,-0.09235232323408127,-0.5564754009246814,10.242878913879395,8.999999999999999e-08,0.0,0.0,0.0,8.999999999999999e-08,0.0,0.0,0.0,8.999999999999999e-08
1676469336.9134283,10983,1676469336,908307392,base_link,0.06915241798664715,0.015922360236813104,0.0058554616636185925,-0.9974618996684029,1.0,0.0,0.0,0.0,1.0,0.0,0.0,0.0,1.0,0.5978771448135376,0.4175749719142914,0.024093080312013574,1.2184696791468346e-07,0.0,0.0,0.0,1.2184696791468346e-07,0.0,0.0,0.0,1.2184696791468346e-07,-0.523171067237854,-1.7486759424209581,10.033137321472168,8.999999999999999e-08,0.0,0.0,0.0,8.999999999999999e-08,0.0,0.0,0.0,8.999999999999999e-08
1676469336.9317942,10984,1676469336,928307392,base_link,0.06335580122608395,0.01216204738862949,0.005586649063816093,-0.9979013227109775,1.0,0.0,0.0,0.0,1.0,0.0,0.0,0.0,1.0,0.646148145198822,0.38320595026016235,-0.010260999202728318,1.2184696791468346e-07,0.0,0.0,0.0,1.2184696791468346e-07,0.0,0.0,0.0,1.2184696791468346e-07,0.11771372705698013,-0.6867416501045216,9.43365478515625,8.999999999999999e-08,0.0,0.0,0.0,8.999999999999999e-08,0.0,0.0,0.0,8.999999999999999e-08
1676469336.9530756,10985,1676469336,948307392,base_link,0.05754846599510882,0.0088779544159485,0.005303717269762481,-0.9982892001578233,1.0,0.0,0.0,0.0,1.0,0.0,0.0,0.0,1.0,0.5516809821128845,0.2976139187812805,0.063553474843502,1.2184696791468346e-07,0.0,0.0,0.0,1.2184696791468346e-07,0.0,0.0,0.0,1.2184696791468346e-07,1.0944368839263916,0.4717723131179822,9.769007682800293,8.999999999999999e-08,0.0,0.0,0.0,8.999999999999999e-08,0.0,0.0,0.0,8.999999999999999e-08
1676469336.974579,10986,1676469336,968309440,base_link,0.05150741595242866,0.0056053043126382185,0.004944626120449677,-0.9986446666781641,1.0,0.0,0.0,0.0,1.0,0.0,0.0,0.0,1.0,0.6558105945587158,0.3598844110965729,-0.016841288655996368,1.2184696791468346e-07,0.0,0.0,0.0,1.2184696791468346e-07,0.0,0.0,0.0,1.2184696791468346e-07,-0.7647820711135864,0.1959459483623516,9.201071739196777,8.999999999999999e-08,0.0,0.0,0.0,8.999999999999999e-08,0.0,0.0,0.0,8.999999999999999e-08
1676469336.9927049,10987,1676469336,988309440,base_link,0.04530243310828734,0.002175501782120971,0.004763731846640908,-0.9989595879302375,1.0,0.0,0.0,0.0,1.0,0.0,0.0,0.0,1.0,0.6193262934684753,0.32610082626342773,0.033029738813638646,1.2184696791468346e-07,0.0,0.0,0.0,1.2184696791468346e-07,0.0,0.0,0.0,1.2184696791468346e-07,-1.1087720394134521,-0.28224962949752697,9.235654830932617,8.999999999999999e-08,0.0,0.0,0.0,8.999999999999999e-08,0.0,0.0,0.0,8.999999999999999e-08
1676469337.0150478,10988,1676469337,8309440,base_link,0.03902788952485682,-0.0009737844955979247,0.00456007827463624,-0.9992273047119787,1.0,0.0,0.0,0.0,1.0,0.0,0.0,0.0,1.0,0.6020467281341553,0.3054431974887848,0.04621583223342892,1.2184696791468346e-07,0.0,0.0,0.0,1.2184696791468346e-07,0.0,0.0,0.0,1.2184696791468346e-07,0.1494673192501068,-0.8695957064628589,9.678340911865234,8.999999999999999e-08,0.0,0.0,0.0,8.999999999999999e-08,0.0,0.0,0.0,8.999999999999999e-08
1676469337.034562,10989,1676469337,28309440,base_link,0.0336205713501876,-0.0036298907425556088,0.004294806010108704,-0.9994189042853093,1.0,0.0,0.0,0.0,1.0,0.0,0.0,0.0,1.0,0.5114032030105591,0.2550235688686371,0.024064747616648643,1.2184696791468346e-07,0.0,0.0,0.0,1.2184696791468346e-07,0.0,0.0,0.0,1.2184696791468346e-07,0.8283829092979431,-1.0371633768081654,9.221691131591797,8.999999999999999e-08,0.0,0.0,0.0,8.999999999999999e-08,0.0,0.0,0.0,8.999999999999999e-08
1676469337.0516624,10990,1676469337,48309440,base_link,0.02849392616190963,-0.005868533772101907,0.004062450434268138,-0.9995684834506744,1.0,0.0,0.0,0.0,1.0,0.0,0.0,0.0,1.0,0.5531924366950989,0.23616795241832733,0.03603813424706456,1.2184696791468346e-07,0.0,0.0,0.0,1.2184696791468346e-07,0.0,0.0,0.0,1.2184696791468346e-07,-0.09673669189214706,-0.5316327810287464,9.408160209655762,8.999999999999999e-08,0.0,0.0,0.0,8.999999999999999e-08,0.0,0.0,0.0,8.999999999999999e-08
1676469337.0727618,10991,1676469337,68311488,base_link,0.023200149621495234,-0.0079797859763905,0.003906717829020395,-0.9996914258077807,1.0,0.0,0.0,0.0,1.0,0.0,0.0,0.0,1.0,0.5430468320846558,0.18979981541633606,0.07949554175138471,1.2184696791468346e-07,0.0,0.0,0.0,1.2184696791468346e-07,0.0,0.0,0.0,1.2184696791468346e-07,-0.0010898038744926453,1.0787028074264537,8.5955810546875,8.999999999999999e-08,0.0,0.0,0.0,8.999999999999999e-08,0.0,0.0,0.0,8.999999999999999e-08
1676469337.0958226,10992,1676469337,88311488,base_link,0.01800908462162963,-0.009870958203739589,0.0036587679192308016,-0.9997824208537157,1.0,0.0,0.0,0.0,1.0,0.0,0.0,0.0,1.0,0.5480755567550659,0.17993637919425964,-0.024951228871941587,1.2184696791468346e-07,0.0,0.0,0.0,1.2184696791468346e-07,0.0,0.0,0.0,1.2184696791468346e-07,0.18294936418533325,0.021943356841803815,9.955606460571289,8.999999999999999e-08,0.0,0.0,0.0,8.999999999999999e-08,0.0,0.0,0.0,8.999999999999999e-08
1676469337.112279,10993,1676469337,108311488,base_link,0.013293899276710219,-0.011284306752754924,0.0034855865186995084,-0.9998418900569646,1.0,0.0,0.0,0.0,1.0,0.0,0.0,0.0,1.0,0.4844967722892761,0.11255991458892822,0.04024667292833327,1.2184696791468346e-07,0.0,0.0,0.0,1.2184696791468346e-07,0.0,0.0,0.0,1.2184696791468346e-07,-1.0057042837142944,-1.1945666074752797,9.851444244384766,8.999999999999999e-08,0.0,0.0,0.0,8.999999999999999e-08,0.0,0.0,0.0,8.999999999999999e-08
1676469337.1326132,10994,1676469337,128311488,base_link,0.008934188519301908,-0.012408643660182805,0.0033364288218194474,-0.9998775884376533,1.0,0.0,0.0,0.0,1.0,0.0,0.0,0.0,1.0,0.3966553211212158,0.08378294110298158,0.07618650794029234,1.2184696791468346e-07,0.0,0.0,0.0,1.2184696791468346e-07,0.0,0.0,0.0,1.2184696791468346e-07,-0.31734174489974976,-0.8669595718383778,9.478622436523438,8.999999999999999e-08,0.0,0.0,0.0,8.999999999999999e-08,0.0,0.0,0.0,8.999999999999999e-08
1676469337.153453,10995,1676469337,148311488,base_link,0.004948556314073278,-0.0132198331874876,0.0031380436058787045,-0.9998955008482705,1.0,0.0,0.0,0.0,1.0,0.0,0.0,0.0,1.0,0.37939101457595825,0.062112793326377876,0.02840274386107921,1.2184696791468346e-07,0.0,0.0,0.0,1.2184696791468346e-07,0.0,0.0,0.0,1.2184696791468346e-07,1.2430757284164429,-0.07137622684240222,9.750988960266113,8.999999999999999e-08,0.0,0.0,0.0,8.999999999999999e-08,0.0,0.0,0.0,8.999999999999999e-08
1676469337.1714866,10996,1676469337,167311488,base_link,0.0012516290333275083,-0.01378577250821328,0.0029476662911550053,-0.9998998419736671,1.0,0.0,0.0,0.0,1.0,0.0,0.0,0.0,1.0,0.35543590784072876,0.04236757755279542,0.035291370004415505,1.2184696791468346e-07,0.0,0.0,0.0,1.2184696791468346e-07,0.0,0.0,0.0,1.2184696791468346e-07,-0.02065916359424591,-0.21442735195159798,9.261568069458008,8.999999999999999e-08,0.0,0.0,0.0,8.999999999999999e-08,0.0,0.0,0.0,8.999999999999999e-08
1676469337.1937046,10997,1676469337,187314304,base_link,-0.002189922589756659,-0.014179066483637195,0.0027542122564899866,-0.9998932670652994,1.0,0.0,0.0,0.0,1.0,0.0,0.0,0.0,1.0,0.39715486764907837,0.04931939393281937,0.046199489384889596,1.2184696791468346e-07,0.0,0.0,0.0,1.2184696791468346e-07,0.0,0.0,0.0,1.2184696791468346e-07,-0.9171873927116394,0.1439431905746472,9.701026916503906,8.999999999999999e-08,0.0,0.0,0.0,8.999999999999999e-08,0.0,0.0,0.0,8.999999999999999e-08
1676469337.213509,10998,1676469337,208314304,base_link,-0.005442835126345936,-0.014304729617378205,0.0025651836409186016,-0.9998795693395334,1.0,0.0,0.0,0.0,1.0,0.0,0.0,0.0,1.0,0.30256080627441406,-0.006209456827491522,0.003325873753055931,1.2184696791468346e-07,0.0,0.0,0.0,1.2184696791468346e-07,0.0,0.0,0.0,1.2184696791468346e-07,0.3027570843696594,-1.1768168210983263,10.169450759887695,8.999999999999999e-08,0.0,0.0,0.0,8.999999999999999e-08,0.0,0.0,0.0,8.999999999999999e-08
1676469337.2316563,10999,1676469337,227314304,base_link,-0.008318553783642463,-0.014112172849605326,0.002408945273488722,-0.9998629213343715,1.0,0.0,0.0,0.0,1.0,0.0,0.0,0.0,1.0,0.3079475462436676,-0.008363530971109869,-0.018854839727282524,1.2184696791468346e-07,0.0,0.0,0.0,1.2184696791468346e-07,0.0,0.0,0.0,1.2184696791468346e-07,0.25927460193634033,-1.5011496543884266,9.73112964630127,8.999999999999999e-08,0.0,0.0,0.0,8.999999999999999e-08,0.0,0.0,0.0,8.999999999999999e-08
1676469337.2530453,11000,1676469337,247314304,base_link,-0.010530886313733579,-0.013632879217611693,0.0022460055571456284,-0.99984909716806,1.0,0.0,0.0,0.0,1.0,0.0,0.0,0.0,1.0,0.2713812291622162,-0.04984046891331672,0.05334576219320298,1.2184696791468346e-07,0.0,0.0,0.0,1.2184696791468346e-07,0.0,0.0,0.0,1.2184696791468346e-07,-0.01929398998618126,1.5600081682205211,9.269159317016602,8.999999999999999e-08,0.0,0.0,0.0,8.999999999999999e-08,0.0,0.0,0.0,8.999999999999999e-08
1676469337.2738945,11001,1676469337,267315840,base_link,-0.012309242458239514,-0.012979404020615298,0.0019777408663737726,-0.9998380968405985,1.0,0.0,0.0,0.0,1.0,0.0,0.0,0.0,1.0,0.22043700516223907,-0.0623014159500599,-0.08332721889019011,1.2184696791468346e-07,0.0,0.0,0.0,1.2184696791468346e-07,0.0,0.0,0.0,1.2184696791468346e-07,-0.1980242133140564,-0.28390583395957825,9.7937593460083,8.999999999999999e-08,0.0,0.0,0.0,8.999999999999999e-08,0.0,0.0,0.0,8.999999999999999e-08
1676469337.2922857,11002,1676469337,287315840,base_link,-0.013769669201677643,-0.012006977196838586,0.001879032947161285,-0.9998313533448369,1.0,0.0,0.0,0.0,1.0,0.0,0.0,0.0,1.0,0.22037656605243683,-0.08070557564496994,-0.0524705983698368,1.2184696791468346e-07,0.0,0.0,0.0,1.2184696791468346e-07,0.0,0.0,0.0,1.2184696791468346e-07,-0.6551730632781982,-2.1231069564819323,9.827455520629883,8.999999999999999e-08,0.0,0.0,0.0,8.999999999999999e-08,0.0,0.0,0.0,8.999999999999999e-08
1676469337.3139007,11003,1676469337,307315840,base_link,-0.014940838007882335,-0.010905803769298361,0.0017505693529000887,-0.9998273915410768,1.0,0.0,0.0,0.0,1.0,0.0,0.0,0.0,1.0,0.08010409027338028,-0.13217699527740479,0.08209082484245302,1.2184696791468346e-07,0.0,0.0,0.0,1.2184696791468346e-07,0.0,0.0,0.0,1.2184696791468346e-07,0.4699902832508087,0.4569767117500317,9.567438125610352,8.999999999999999e-08,0.0,0.0,0.0,8.999999999999999e-08,0.0,0.0,0.0,8.999999999999999e-08
1676469337.3317914,11004,1676469337,327315840,base_link,-0.0158166134646269,-0.009717709628375943,0.001523861454759987,-0.9998265907509551,1.0,0.0,0.0,0.0,1.0,0.0,0.0,0.0,1.0,0.04009635001420975,-0.11889626085758208,0.0925499275326729,1.2184696791468346e-07,0.0,0.0,0.0,1.2184696791468346e-07,0.0,0.0,0.0,1.2184696791468346e-07,0.3173768222332001,0.2856696248054516,9.309054374694824,8.999999999999999e-08,0.0,0.0,0.0,8.999999999999999e-08,0.0,0.0,0.0,8.999999999999999e-08
1676469337.3528047,11005,1676469337,347315840,base_link,-0.01662430710841107,-0.00854989487166847,0.0014657409506634667,-0.9998241883805901,1.0,0.0,0.0,0.0,1.0,0.0,0.0,0.0,1.0,0.09702356159687042,-0.09986571967601776,-0.014376942999660957,1.2184696791468346e-07,0.0,0.0,0.0,1.2184696791468346e-07,0.0,0.0,0.0,1.2184696791468346e-07,-0.6638230085372925,-0.7420271039009083,9.098841667175293,8.999999999999999e-08,0.0,0.0,0.0,8.999999999999999e-08,0.0,0.0,0.0,8.999999999999999e-08
1676469337.3716552,11006,1676469337,367315840,base_link,-0.016966542811042068,-0.00743893489651318,0.0013643356331462316,-0.9998274758347738,1.0,0.0,0.0,0.0,1.0,0.0,0.0,0.0,1.0,0.03314903751015663,-0.11038821935653687,-0.004691037815064178,1.2184696791468346e-07,0.0,0.0,0.0,1.2184696791468346e-07,0.0,0.0,0.0,1.2184696791468346e-07,0.20990990102291107,-0.4915685057640064,9.622858047485352,8.999999999999999e-08,0.0,0.0,0.0,8.999999999999999e-08,0.0,0.0,0.0,8.999999999999999e-08
1676469337.3931396,11007,1676469337,387318912,base_link,-0.016897108512298403,-0.006492514242310895,0.001268535846480949,-0.9998353572954454,1.0,0.0,0.0,0.0,1.0,0.0,0.0,0.0,1.0,-0.05969983711838722,-0.09171760082244873,0.004067767877131712,1.2184696791468346e-07,0.0,0.0,0.0,1.2184696791468346e-07,0.0,0.0,0.0,1.2184696791468346e-07,0.2024039775133133,-0.6943014860153186,9.853139877319336,8.999999999999999e-08,0.0,0.0,0.0,8.999999999999999e-08,0.0,0.0,0.0,8.999999999999999e-08
1676469337.4125283,11008,1676469337,407318912,base_link,-0.01647425807153946,-0.005634150537721265,0.0011401565459167656,-0.9998478327626046,1.0,0.0,0.0,0.0,1.0,0.0,0.0,0.0,1.0,-0.03910958766937256,-0.06165566295385361,-0.013241091743111603,1.2184696791468346e-07,0.0,0.0,0.0,1.2184696791468346e-07,0.0,0.0,0.0,1.2184696791468346e-07,-0.34591078758239746,-0.156937539577483,9.248186111450195,8.999999999999999e-08,0.0,0.0,0.0,8.999999999999999e-08,0.0,0.0,0.0,8.999999999999999e-08
1676469337.4329033,11009,1676469337,427318912,base_link,-0.015775847583949246,-0.004736214893646953,0.001058012338169035,-0.9998638064181903,1.0,0.0,0.0,0.0,1.0,0.0,0.0,0.0,1.0,-0.03256237879395485,-0.07923668622970581,-0.003063231240957966,1.2184696791468346e-07,0.0,0.0,0.0,1.2184696791468346e-07,0.0,0.0,0.0,1.2184696791468346e-07,0.30160677433013916,0.5142487883567822,9.768442153930664,8.999999999999999e-08,0.0,0.0,0.0,8.999999999999999e-08,0.0,0.0,0.0,8.999999999999999e-08
1676469337.4515202,11010,1676469337,447318912,base_link,-0.015034613922638438,-0.003797782055054244,0.0009733393195106423,-0.9998793586052908,1.0,0.0,0.0,0.0,1.0,0.0,0.0,0.0,1.0,-0.07766540348529816,-0.08128581196069717,-0.004181942902505388,1.2184696791468346e-07,0.0,0.0,0.0,1.2184696791468346e-07,0.0,0.0,0.0,1.2184696791468346e-07,-0.4264468550682068,-0.9470049142837512,9.883042335510254,8.999999999999999e-08,0.0,0.0,0.0,8.999999999999999e-08,0.0,0.0,0.0,8.999999999999999e-08
1676469337.4732099,11011,1676469337,467321216,base_link,-0.013702863071747272,-0.0027691157772499982,0.0008769494769662583,-0.9999019071692441,1.0,0.0,0.0,0.0,1.0,0.0,0.0,0.0,1.0,-0.16990189254283905,-0.1152719110250473,0.04299460351467134,1.2184696791468346e-07,0.0,0.0,0.0,1.2184696791468346e-07,0.0,0.0,0.0,1.2184696791468346e-07,-0.21063771843910217,-0.6758999228477466,9.70181941986084,8.999999999999999e-08,0.0,0.0,0.0,8.999999999999999e-08,0.0,0.0,0.0,8.999999999999999e-08
1676469337.493878,11012,1676469337,487321216,base_link,-0.011954613771148913,-0.0018138567972060772,0.000806564239953079,-0.9999266052224715,1.0,0.0,0.0,0.0,1.0,0.0,0.0,0.0,1.0,-0.18053054809570312,-0.09394945949316025,0.03044203482568265,1.2184696791468346e-07,0.0,0.0,0.0,1.2184696791468346e-07,0.0,0.0,0.0,1.2184696791468346e-07,0.6193661689758301,-0.11408003419637557,10.135396957397461,8.999999999999999e-08,0.0,0.0,0.0,8.999999999999999e-08,0.0,0.0,0.0,8.999999999999999e-08
1676469337.513116,11013,1676469337,507321216,base_link,-0.009994644716139886,-0.001030717973218805,0.0007315007027551797,-0.9999493223738188,1.0,0.0,0.0,0.0,1.0,0.0,0.0,0.0,1.0,-0.16937966644763947,-0.07165232300758362,-0.0035206009633839044,1.2184696791468346e-07,0.0,0.0,0.0,1.2184696791468346e-07,0.0,0.0,0.0,1.2184696791468346e-07,-0.571990966796875,0.0845603048801434,9.734850883483887,8.999999999999999e-08,0.0,0.0,0.0,8.999999999999999e-08,0.0,0.0,0.0,8.999999999999999e-08
1676469337.5347085,11014,1676469337,527321216,base_link,-0.008145979561147558,-0.00023212574380721142,0.0007082777892256287,-0.9999665604348598,1.0,0.0,0.0,0.0,1.0,0.0,0.0,0.0,1.0,-0.15414530038833618,-0.0701754242181778,-0.0035887334961444053,1.2184696791468346e-07,0.0,0.0,0.0,1.2184696791468346e-07,0.0,0.0,0.0,1.2184696791468346e-07,-0.42239171266555786,-0.2966350317001331,9.562295913696289,8.999999999999999e-08,0.0,0.0,0.0,8.999999999999999e-08,0.0,0.0,0.0,8.999999999999999e-08
1676469337.5514565,11015,1676469337,547321216,base_link,-0.006313839922038548,0.0006216281492265399,0.0006297582104498603,-0.9999796681047467,1.0,0.0,0.0,0.0,1.0,0.0,0.0,0.0,1.0,-0.11331704258918762,-0.07626180350780487,-0.019756749272346486,1.2184696791468346e-07,0.0,0.0,0.0,1.2184696791468346e-07,0.0,0.0,0.0,1.2184696791468346e-07,0.6355572938919067,-1.4544210433959948,10.586197853088379,8.999999999999999e-08,0.0,0.0,0.0,8.999999999999999e-08,0.0,0.0,0.0,8.999999999999999e-08
1676469337.572591,11016,1676469337,567323520,base_link,-0.0041982583638364105,0.001506019919995488,0.0005901823196981011,-0.9999899097889349,1.0,0.0,0.0,0.0,1.0,0.0,0.0,0.0,1.0,-0.24285589158535004,-0.10634688287973404,0.049781311303377165,1.2184696791468346e-07,0.0,0.0,0.0,1.2184696791468346e-07,0.0,0.0,0.0,1.2184696791468346e-07,-0.008467275649309158,0.260411858558656,9.748509407043457,8.999999999999999e-08,0.0,0.0,0.0,8.999999999999999e-08,0.0,0.0,0.0,8.999999999999999e-08
1676469337.5953484,11017,1676469337,587323520,base_link,-0.002006708778134174,0.0024025064986185306,0.000502980490129086,-0.9999950095576047,1.0,0.0,0.0,0.0,1.0,0.0,0.0,0.0,1.0,-0.14226169884204865,-0.0834948867559433,-0.05470813810825347,1.2184696791468346e-07,0.0,0.0,0.0,1.2184696791468346e-07,0.0,0.0,0.0,1.2184696791468346e-07,0.05588018149137497,0.8261818289756787,9.666877746582031,8.999999999999999e-08,0.0,0.0,0.0,8.999999999999999e-08,0.0,0.0,0.0,8.999999999999999e-08
1676469337.6127079,11018,1676469337,607323520,base_link,9.775961512108024e-05,0.0034618512575427954,0.0005330311931173655,-0.9999938715926949,1.0,0.0,0.0,0.0,1.0,0.0,0.0,0.0,1.0,-0.22007596492767334,-0.0981612280011177,-0.029297558590769757,1.2184696791468346e-07,0.0,0.0,0.0,1.2184696791468346e-07,0.0,0.0,0.0,1.2184696791468346e-07,-0.302262544631958,-1.5228619575500477,9.924263000488281,8.999999999999999e-08,0.0,0.0,0.0,8.999999999999999e-08,0.0,0.0,0.0,8.999999999999999e-08
1676469337.632363,11019,1676469337,627323520,base_link,0.002373352836147715,0.004599934787666435,0.0005427671151233941,-0.9999864958942055,1.0,0.0,0.0,0.0,1.0,0.0,0.0,0.0,1.0,-0.24189797043800354,-0.10244747251272202,0.02168081142008306,1.2184696791468346e-07,0.0,0.0,0.0,1.2184696791468346e-07,0.0,0.0,0.0,1.2184696791468346e-07,-0.33989518880844116,-0.4241373538970935,9.806351661682129,8.999999999999999e-08,0.0,0.0,0.0,8.999999999999999e-08,0.0,0.0,0.0,8.999999999999999e-08
1676469337.6532109,11020,1676469337,647323520,base_link,0.004802982622200826,0.005569355479241302,0.000564051273621367,-0.9999727981684394,1.0,0.0,0.0,0.0,1.0,0.0,0.0,0.0,1.0,-0.2410212755203247,-0.09021700173616409,0.013866343535482894,1.2184696791468346e-07,0.0,0.0,0.0,1.2184696791468346e-07,0.0,0.0,0.0,1.2184696791468346e-07,0.8503438234329224,-0.20980219542980072,9.903807640075684,8.999999999999999e-08,0.0,0.0,0.0,8.999999999999999e-08,0.0,0.0,0.0,8.999999999999999e-08
1676469337.672334,11021,1676469337,667323520,base_link,0.007303217804927955,0.006166045700403362,0.0005631661898026525,-0.9999542114082461,1.0,0.0,0.0,0.0,1.0,0.0,0.0,0.0,1.0,-0.1999301314353943,-0.03903380036354065,-0.013516675680875773,1.2184696791468346e-07,0.0,0.0,0.0,1.2184696791468346e-07,0.0,0.0,0.0,1.2184696791468346e-07,0.2670391798019409,-1.1501657962799061,9.735400199890137,8.999999999999999e-08,0.0,0.0,0.0,8.999999999999999e-08,0.0,0.0,0.0,8.999999999999999e-08
1676469337.6930933,11022,1676469337,687326592,base_link,0.009918426256511232,0.006591317485841062,0.0005557483444647499,-0.9999290075928366,1.0,0.0,0.0,0.0,1.0,0.0,0.0,0.0,1.0,-0.29145190119743347,-0.054059874266386025,0.059295147657394416,1.2184696791468346e-07,0.0,0.0,0.0,1.2184696791468346e-07,0.0,0.0,0.0,1.2184696791468346e-07,-0.3511163592338562,0.9862818121910106,9.347195625305176,8.999999999999999e-08,0.0,0.0,0.0,8.999999999999999e-08,0.0,0.0,0.0,8.999999999999999e-08
1676469337.7134233,11023,1676469337,707326592,base_link,0.01251477650408682,0.00725408820320376,0.0004915165473341381,-0.9998952901140279,1.0,0.0,0.0,0.0,1.0,0.0,0.0,0.0,1.0,-0.17759288847446442,-0.06976618617773057,-0.0716816559433937,1.2184696791468346e-07,0.0,0.0,0.0,1.2184696791468346e-07,0.0,0.0,0.0,1.2184696791468346e-07,0.46021968126296997,0.9087312817573558,9.392716407775879,8.999999999999999e-08,0.0,0.0,0.0,8.999999999999999e-08,0.0,0.0,0.0,8.999999999999999e-08
1676469337.7317052,11024,1676469337,727326592,base_link,0.015041320539907857,0.008056166602604487,0.00042218498153371643,-0.9998543655241239,1.0,0.0,0.0,0.0,1.0,0.0,0.0,0.0,1.0,-0.2402525097131729,-0.09375955164432526,0.010729674249887479,1.2184696791468346e-07,0.0,0.0,0.0,1.2184696791468346e-07,0.0,0.0,0.0,1.2184696791468346e-07,-0.3104704022407532,-1.3796437978744494,10.03411865234375,8.999999999999999e-08,0.0,0.0,0.0,8.999999999999999e-08,0.0,0.0,0.0,8.999999999999999e-08
1676469337.7525957,11025,1676469337,747326592,base_link,0.0174618469771139,0.008713416412084512,0.0004494539925202719,-0.9998094791304597,1.0,0.0,0.0,0.0,1.0,0.0,0.0,0.0,1.0,-0.21213127672672272,-0.0439799353480339,0.038291085511446006,1.2184696791468346e-07,0.0,0.0,0.0,1.2184696791468346e-07,0.0,0.0,0.0,1.2184696791468346e-07,-0.6311879754066467,-0.5508064627647388,9.797385215759277,8.999999999999999e-08,0.0,0.0,0.0,8.999999999999999e-08,0.0,0.0,0.0,8.999999999999999e-08
1676469337.7741175,11026,1676469337,767328896,base_link,0.019498662578576194,0.009238481192288723,0.00038598083866283754,-0.9997671636945548,1.0,0.0,0.0,0.0,1.0,0.0,0.0,0.0,1.0,-0.16798673570156097,-0.030844978988170624,-0.0066505828872323,1.2184696791468346e-07,0.0,0.0,0.0,1.2184696791468346e-07,0.0,0.0,0.0,1.2184696791468346e-07,0.46122294664382935,-0.6379368305206287,10.066933631896973,8.999999999999999e-08,0.0,0.0,0.0,8.999999999999999e-08,0.0,0.0,0.0,8.999999999999999e-08
1676469337.7927096,11027,1676469337,787328896,base_link,0.021029174674322196,0.009366315876544804,0.0004017437600059346,-0.9997349635022925,1.0,0.0,0.0,0.0,1.0,0.0,0.0,0.0,1.0,-0.04831969738006592,0.015317820943891997,-0.04870513826608658,1.2184696791468346e-07,0.0,0.0,0.0,1.2184696791468346e-07,0.0,0.0,0.0,1.2184696791468346e-07,0.5139855146408081,-1.5423873662948595,10.362420082092285,8.999999999999999e-08,0.0,0.0,0.0,8.999999999999999e-08,0.0,0.0,0.0,8.999999999999999e-08
1676469337.8129299,11028,1676469337,807328896,base_link,0.022501405581111727,0.009380016895033384,0.0003660032324686825,-0.99970276331003,1.0,0.0,0.0,0.0,1.0,0.0,0.0,0.0,1.0,-0.153655007481575,-0.04153460264205932,0.04935790598392487,1.2184696791468346e-07,0.0,0.0,0.0,1.2184696791468346e-07,0.0,0.0,0.0,1.2184696791468346e-07,0.3486943542957306,0.9191001057624828,9.069897651672363,8.999999999999999e-08,0.0,0.0,0.0,8.999999999999999e-08,0.0,0.0,0.0,8.999999999999999e-08
1676469337.833507,11029,1676469337,827328896,base_link,0.024062239700183286,0.009819785673474656,0.00031774509092373374,-0.9996622601886112,1.0,0.0,0.0,0.0,1.0,0.0,0.0,0.0,1.0,-0.07593972980976105,-0.037536866962909705,-0.06528244912624359,1.2184696791468346e-07,0.0,0.0,0.0,1.2184696791468346e-07,0.0,0.0,0.0,1.2184696791468346e-07,0.37028342485427856,0.8327164053916943,9.589457511901855,8.999999999999999e-08,0.0,0.0,0.0,8.999999999999999e-08,0.0,0.0,0.0,8.999999999999999e-08
1676469337.8513288,11030,1676469337,847328896,base_link,0.025299305021716696,0.01032322451058122,0.00039213427854545177,-0.9996265618079224,1.0,0.0,0.0,0.0,1.0,0.0,0.0,0.0,1.0,-0.12322365492582321,-0.056861519813537605,-0.032189182937145226,1.2184696791468346e-07,0.0,0.0,0.0,1.2184696791468346e-07,0.0,0.0,0.0,1.2184696791468346e-07,-0.8866461515426636,-1.5464056730270375,9.945079803466797,8.999999999999999e-08,0.0,0.0,0.0,8.999999999999999e-08,0.0,0.0,0.0,8.999999999999999e-08
1676469337.872181,11031,1676469337,867331456,base_link,0.026578284067005176,0.010601081560656337,0.00038446355211647004,-0.9995904841055971,1.0,0.0,0.0,0.0,1.0,0.0,0.0,0.0,1.0,-0.08025708794593811,-0.002173592802137135,0.012015252374112606,1.2184696791468346e-07,0.0,0.0,0.0,1.2184696791468346e-07,0.0,0.0,0.0,1.2184696791468346e-07,-0.3527522683143616,-0.3364648520946491,9.713773727416992,8.999999999999999e-08,0.0,0.0,0.0,8.999999999999999e-08,0.0,0.0,0.0,8.999999999999999e-08
1676469337.8942766,11032,1676469337,887331456,base_link,0.027874243682431986,0.010525278477975972,0.00042454520505029133,-0.9995559658366667,1.0,0.0,0.0,0.0,1.0,0.0,0.0,0.0,1.0,-0.20503731071949005,0.0024269404821097846,-0.0026000926736742262,1.2184696791468346e-07,0.0,0.0,0.0,1.2184696791468346e-07,0.0,0.0,0.0,1.2184696791468346e-07,0.6346569657325745,-1.292689561843871,9.524343490600586,8.999999999999999e-08,0.0,0.0,0.0,8.999999999999999e-08,0.0,0.0,0.0,8.999999999999999e-08
1676469337.9125345,11033,1676469337,907331456,base_link,0.029398636582609817,0.010290294651004053,0.0004833400587229945,-0.9995147040719745,1.0,0.0,0.0,0.0,1.0,0.0,0.0,0.0,1.0,-0.22263723611831665,0.00135134323500098,0.09707953035831451,1.2184696791468346e-07,0.0,0.0,0.0,1.2184696791468346e-07,0.0,0.0,0.0,1.2184696791468346e-07,0.4631674885749817,-0.16749858856201058,9.293801307678223,8.999999999999999e-08,0.0,0.0,0.0,8.999999999999999e-08,0.0,0.0,0.0,8.999999999999999e-08
1676469337.9326532,11034,1676469337,927331456,base_link,0.03076279111601627,0.010128218286510901,0.0004748263953238044,-0.9994753389154654,1.0,0.0,0.0,0.0,1.0,0.0,0.0,0.0,1.0,-0.06207726150751114,0.0010933869052678325,-0.018476206809282303,1.2184696791468346e-07,0.0,0.0,0.0,1.2184696791468346e-07,0.0,0.0,0.0,1.2184696791468346e-07,0.4592636227607727,1.5574045181274425,9.865248680114746,8.999999999999999e-08,0.0,0.0,0.0,8.999999999999999e-08,0.0,0.0,0.0,8.999999999999999e-08
1676469337.9534104,11035,1676469337,947331456,base_link,0.031683697780345785,0.01001877279909573,0.00048097983520641724,-0.9994476905828422,1.0,0.0,0.0,0.0,1.0,0.0,0.0,0.0,1.0,-0.062333185225725174,0.018715761601924886,-0.07807441800832748,1.2184696791468346e-07,0.0,0.0,0.0,1.2184696791468346e-07,0.0,0.0,0.0,1.2184696791468346e-07,-0.5085470080375671,-0.9163281321525562,9.642053604125977,8.999999999999999e-08,0.0,0.0,0.0,8.999999999999999e-08,0.0,0.0,0.0,8.999999999999999e-08
1676469337.9740481,11036,1676469337,967332736,base_link,0.032759088449535914,0.009694570679271328,0.0005963357595807028,-0.9994161225933075,1.0,0.0,0.0,0.0,1.0,0.0,0.0,0.0,1.0,-0.11175135523080826,0.07271315902471542,0.029052216559648503,1.2184696791468346e-07,0.0,0.0,0.0,1.2184696791468346e-07,0.0,0.0,0.0,1.2184696791468346e-07,-0.942246675491333,-0.8722648024559009,9.628962516784668,8.999999999999999e-08,0.0,0.0,0.0,8.999999999999999e-08,0.0,0.0,0.0,8.999999999999999e-08
1676469337.9949062,11037,1676469337,987332736,base_link,0.034042124128993566,0.008988456867298987,0.0006542455294347097,-0.9993797920098911,1.0,0.0,0.0,0.0,1.0,0.0,0.0,0.0,1.0,-0.08262766897678375,0.07364172488451004,-0.029931290075182925,1.2184696791468346e-07,0.0,0.0,0.0,1.2184696791468346e-07,0.0,0.0,0.0,1.2184696791468346e-07,0.37498757243156433,-0.4299977421760547,9.986345291137695,8.999999999999999e-08,0.0,0.0,0.0,8.999999999999999e-08,0.0,0.0,0.0,8.999999999999999e-08
1676469338.01236,11038,1676469338,7332736,base_link,0.035155962602193246,0.008318561686176677,0.0006529389771308295,-0.9993470439085982,1.0,0.0,0.0,0.0,1.0,0.0,0.0,0.0,1.0,-0.15780331194400787,0.05535915866494179,0.016656156629323952,1.2184696791468346e-07,0.0,0.0,0.0,1.2184696791468346e-07,0.0,0.0,0.0,1.2184696791468346e-07,0.39602020382881165,-1.8301943540573107,10.109418869018555,8.999999999999999e-08,0.0,0.0,0.0,8.999999999999999e-08,0.0,0.0,0.0,8.999999999999999e-08
1676469338.0325541,11039,1676469338,27332736,base_link,0.036049390179838166,0.007787981595718111,0.0007617199931374851,-0.9993194377228236,1.0,0.0,0.0,0.0,1.0,0.0,0.0,0.0,1.0,-0.12610533833503723,0.014929874800145638,0.09484649449586868,1.2184696791468346e-07,0.0,0.0,0.0,1.2184696791468346e-07,0.0,0.0,0.0,1.2184696791468346e-07,0.12917612493038177,0.308545231819154,9.434715270996094,8.999999999999999e-08,0.0,0.0,0.0,8.999999999999999e-08,0.0,0.0,0.0,8.999999999999999e-08
1676469338.0537748,11040,1676469338,47332736,base_link,0.03662984974842035,0.007599195324525688,0.0007542600009510495,-0.999299755144569,1.0,0.0,0.0,0.0,1.0,0.0,0.0,0.0,1.0,-0.04923010617494583,-0.01823915727436543,-0.033137813210487366,1.2184696791468346e-07,0.0,0.0,0.0,1.2184696791468346e-07,0.0,0.0,0.0,1.2184696791468346e-07,0.5606309771537781,0.8881883025169385,10.041055679321289,8.999999999999999e-08,0.0,0.0,0.0,8.999999999999999e-08,0.0,0.0,0.0,8.999999999999999e-08
1676469338.0726688,11041,1676469338,67335552,base_link,0.03713255628403404,0.007629778131476407,0.0007237456826291712,-0.9992810419438302,1.0,0.0,0.0,0.0,1.0,0.0,0.0,0.0,1.0,-0.04799552634358406,0.011918935924768444,-0.03392774611711502,1.2184696791468346e-07,0.0,0.0,0.0,1.2184696791468346e-07,0.0,0.0,0.0,1.2184696791468346e-07,-0.4397994875907898,-0.7691965103149402,9.833561897277832,8.999999999999999e-08,0.0,0.0,0.0,8.999999999999999e-08,0.0,0.0,0.0,8.999999999999999e-08
1676469338.0942118,11042,1676469338,87335552,base_link,0.03736743935369624,0.007364912847454772,0.0007654710626549257,-0.9992742141543713,1.0,0.0,0.0,0.0,1.0,0.0,0.0,0.0,1.0,0.04895404353737831,0.042485903948545456,0.0036836517974734254,1.2184696791468346e-07,0.0,0.0,0.0,1.2184696791468346e-07,0.0,0.0,0.0,1.2184696791468346e-07,-0.5401265025138855,0.28926357626915095,9.490262031555176,8.999999999999999e-08,0.0,0.0,0.0,8.999999999999999e-08,0.0,0.0,0.0,8.999999999999999e-08
1676469338.1136365,11043,1676469338,107335552,base_link,0.037279012631342354,0.006938368301278301,0.0007448191068845923,-0.999280536181648,1.0,0.0,0.0,0.0,1.0,0.0,0.0,0.0,1.0,0.09262446314096451,0.05801755934953688,-0.08861977607011796,1.2184696791468346e-07,0.0,0.0,0.0,1.2184696791468346e-07,0.0,0.0,0.0,1.2184696791468346e-07,-0.05313017591834068,-0.4933942556381213,10.45569133758545,8.999999999999999e-08,0.0,0.0,0.0,8.999999999999999e-08,0.0,0.0,0.0,8.999999999999999e-08
1676469338.1317682,11044,1676469338,127335552,base_link,0.03707792870000786,0.006613088144094332,0.0008521249831933252,-0.9992901456631085,1.0,0.0,0.0,0.0,1.0,0.0,0.0,0.0,1.0,-0.04327679052948952,0.024417592212557796,0.016969174146652218,1.2184696791468346e-07,0.0,0.0,0.0,1.2184696791468346e-07,0.0,0.0,0.0,1.2184696791468346e-07,-0.682843804359436,-2.371169328689574,10.075799942016602,8.999999999999999e-08,0.0,0.0,0.0,8.999999999999999e-08,0.0,0.0,0.0,8.999999999999999e-08
1676469338.152435,11045,1676469338,147335552,base_link,0.037029256992511875,0.0063598277313923705,0.0009122263891698614,-0.9992936017046864,1.0,0.0,0.0,0.0,1.0,0.0,0.0,0.0,1.0,-0.04616675525903702,0.0091569870710373,0.06316917389631271,1.2184696791468346e-07,0.0,0.0,0.0,1.2184696791468346e-07,0.0,0.0,0.0,1.2184696791468346e-07,0.20551343262195587,-0.11841334402561067,9.861967086791992,8.999999999999999e-08,0.0,0.0,0.0,8.999999999999999e-08,0.0,0.0,0.0,8.999999999999999e-08
1676469338.1735759,11046,1676469338,167337600,base_link,0.03677933013210932,0.006194081298356233,0.0009006360058293904,-0.9993038433888746,1.0,0.0,0.0,0.0,1.0,0.0,0.0,0.0,1.0,0.0747641995549202,-0.012653028592467312,-0.028747577220201492,1.2184696791468346e-07,0.0,0.0,0.0,1.2184696791468346e-07,0.0,0.0,0.0,1.2184696791468346e-07,1.1216975450515747,0.4308078885078442,9.691363334655762,8.999999999999999e-08,0.0,0.0,0.0,8.999999999999999e-08,0.0,0.0,0.0,8.999999999999999e-08
1676469338.1942854,11047,1676469338,187337600,base_link,0.03588047614771863,0.006200876160589597,0.001026191467543322,-0.9993363386090764,1.0,0.0,0.0,0.0,1.0,0.0,0.0,0.0,1.0,0.09566621482372284,-0.02511359751224518,-0.026931472122669217,1.2184696791468346e-07,0.0,0.0,0.0,1.2184696791468346e-07,0.0,0.0,0.0,1.2184696791468346e-07,-0.26002997159957886,-0.5876828432083118,9.574950218200684,8.999999999999999e-08,0.0,0.0,0.0,8.999999999999999e-08,0.0,0.0,0.0,8.999999999999999e-08
1676469338.2133877,11048,1676469338,207337600,base_link,0.034856160214934116,0.006297674300728962,0.001074997518118934,-0.9993719105492196,1.0,0.0,0.0,0.0,1.0,0.0,0.0,0.0,1.0,0.10156963020563126,0.006317551247775553,-0.012682742439210415,1.2184696791468346e-07,0.0,0.0,0.0,1.2184696791468346e-07,0.0,0.0,0.0,1.2184696791468346e-07,-0.8439540863037109,0.24041646718978996,9.280024528503418,8.999999999999999e-08,0.0,0.0,0.0,8.999999999999999e-08,0.0,0.0,0.0,8.999999999999999e-08
1676469338.2327523,11049,1676469338,227337600,base_link,0.03431583893411347,0.006347124407833385,0.0010849863212160382,-0.9993903287220189,1.0,0.0,0.0,0.0,1.0,0.0,0.0,0.0,1.0,0.06207970902323723,0.015565958805382245,-0.05198589339852333,1.2184696791468346e-07,0.0,0.0,0.0,1.2184696791468346e-07,0.0,0.0,0.0,1.2184696791468346e-07,-0.15317726135253906,-0.5307232737541187,10.042970657348633,8.999999999999999e-08,0.0,0.0,0.0,8.999999999999999e-08,0.0,0.0,0.0,8.999999999999999e-08
1676469338.252844,11050,1676469338,247337600,base_link,0.034183811296975064,0.006409296277743017,0.0010782428254543079,-0.9993944591131729,1.0,0.0,0.0,0.0,1.0,0.0,0.0,0.0,1.0,-0.023916687816381454,-4.986347630619603e-05,0.0326695442199707,1.2184696791468346e-07,0.0,0.0,0.0,1.2184696791468346e-07,0.0,0.0,0.0,1.2184696791468346e-07,-0.08553430438041687,-1.717820405960082,9.560413360595703,8.999999999999999e-08,0.0,0.0,0.0,8.999999999999999e-08,0.0,0.0,0.0,8.999999999999999e-08
1676469338.273435,11051,1676469338,267339904,base_link,0.034238384880351594,0.006268801075320968,0.0011042052841370139,-0.9993934475888087,1.0,0.0,0.0,0.0,1.0,0.0,0.0,0.0,1.0,-0.06893773376941681,0.007182847708463677,0.06501627713441849,1.2184696791468346e-07,0.0,0.0,0.0,1.2184696791468346e-07,0.0,0.0,0.0,1.2184696791468346e-07,0.8035996556282043,-0.3342877328395832,9.388383865356445,8.999999999999999e-08,0.0,0.0,0.0,8.999999999999999e-08,0.0,0.0,0.0,8.999999999999999e-08
1676469338.2932353,11052,1676469338,287339904,base_link,0.034131633498518575,0.0060938455558851995,0.0010762619235742733,-0.9993982101826904,1.0,0.0,0.0,0.0,1.0,0.0,0.0,0.0,1.0,-0.00048804120160639286,-0.0016125728143379092,0.0006151524721644821,1.2184696791468346e-07,0.0,0.0,0.0,1.2184696791468346e-07,0.0,0.0,0.0,1.2184696791468346e-07,0.6823796033859253,0.41399207711219904,9.700810432434082,8.999999999999999e-08,0.0,0.0,0.0,8.999999999999999e-08,0.0,0.0,0.0,8.999999999999999e-08
1676469338.3126915,11053,1676469338,307339904,base_link,0.03380609519188748,0.006028822188256001,0.0010124094480802493,-0.9994097162723339,1.0,0.0,0.0,0.0,1.0,0.0,0.0,0.0,1.0,0.0547143891453743,-0.008511712774634365,-0.03366156294941902,1.2184696791468346e-07,0.0,0.0,0.0,1.2184696791468346e-07,0.0,0.0,0.0,1.2184696791468346e-07,-0.8025288581848145,-0.03505173325538515,9.814791679382324,8.999999999999999e-08,0.0,0.0,0.0,8.999999999999999e-08,0.0,0.0,0.0,8.999999999999999e-08
1676469338.3333757,11054,1676469338,327339904,base_link,0.03322168962461346,0.006001724398841529,0.0010139267346266803,-0.999429525291134,1.0,0.0,0.0,0.0,1.0,0.0,0.0,0.0,1.0,0.09650788456201553,0.014213766902685167,0.010559067130088804,1.2184696791468346e-07,0.0,0.0,0.0,1.2184696791468346e-07,0.0,0.0,0.0,1.2184696791468346e-07,-0.582023024559021,-0.08318390697240724,8.60033130645752,8.999999999999999e-08,0.0,0.0,0.0,8.999999999999999e-08,0.0,0.0,0.0,8.999999999999999e-08
1676469338.3518991,11055,1676469338,346339904,base_link,0.032474134923842775,0.0057197185183661195,0.0009651628308995575,-0.9994557827777563,1.0,0.0,0.0,0.0,1.0,0.0,0.0,0.0,1.0,0.09484991431236267,0.06192688643932342,-0.03919148445129395,1.2184696791468346e-07,0.0,0.0,0.0,1.2184696791468346e-07,0.0,0.0,0.0,1.2184696791468346e-07,0.3616117835044861,-0.7695389986038196,10.230892181396484,8.999999999999999e-08,0.0,0.0,0.0,8.999999999999999e-08,0.0,0.0,0.0,8.999999999999999e-08
1676469338.3729918,11056,1676469338,367342208,base_link,0.031827951296274894,0.0054055177139844535,0.0009502849933752308,-0.9994783313417096,1.0,0.0,0.0,0.0,1.0,0.0,0.0,0.0,1.0,0.0720968097448349,0.0364069938659668,0.02297130227088928,1.2184696791468346e-07,0.0,0.0,0.0,1.2184696791468346e-07,0.0,0.0,0.0,1.2184696791468346e-07,-0.5975457429885864,-1.3844101428985582,10.019485473632812,8.999999999999999e-08,0.0,0.0,0.0,8.999999999999999e-08,0.0,0.0,0.0,8.999999999999999e-08
1676469338.3961542,11057,1676469338,392342208,base_link,0.031321238175874636,0.004841184583313742,0.0009247861500261313,-0.999497255276691,1.0,0.0,0.0,0.0,1.0,0.0,0.0,0.0,1.0,0.025537816807627678,0.06017410010099411,-0.02491599880158902,1.2184696791468346e-07,0.0,0.0,0.0,1.2184696791468346e-07,0.0,0.0,0.0,1.2184696791468346e-07,0.05797485262155533,-0.755248725414275,9.21213150024414,8.999999999999999e-08,0.0,0.0,0.0,8.999999999999999e-08,0.0,0.0,0.0,8.999999999999999e-08
1676469338.4127405,11058,1676469338,406342208,base_link,0.030903767055929145,0.004516436530092224,0.0009306445619691113,-0.9995117959394273,1.0,0.0,0.0,0.0,1.0,0.0,0.0,0.0,1.0,0.0027874342631548643,0.03215023875236511,0.025339385494589802,1.2184696791468346e-07,0.0,0.0,0.0,1.2184696791468346e-07,0.0,0.0,0.0,1.2184696791468346e-07,0.14798787236213684,-1.3781527280807482,10.898789405822754,8.999999999999999e-08,0.0,0.0,0.0,8.999999999999999e-08,0.0,0.0,0.0,8.999999999999999e-08
1676469338.432176,11059,1676469338,426342208,base_link,0.03008283732607903,0.004139371066978526,0.0010105549867458102,-0.9995383484539891,1.0,0.0,0.0,0.0,1.0,0.0,0.0,0.0,1.0,0.08960115909576416,0.008736686781048778,0.024761175736784935,1.2184696791468346e-07,0.0,0.0,0.0,1.2184696791468346e-07,0.0,0.0,0.0,1.2184696791468346e-07,-0.19664081931114197,0.48447775840759394,9.59692096710205,8.999999999999999e-08,0.0,0.0,0.0,8.999999999999999e-08,0.0,0.0,0.0,8.999999999999999e-08
1676469338.453995,11060,1676469338,446342208,base_link,0.029224817052450315,0.0040675712763621865,0.000996182911403548,-0.9995641001784293,1.0,0.0,0.0,0.0,1.0,0.0,0.0,0.0,1.0,0.1425716131925583,0.0044277152046561154,-0.06857519596815109,1.2184696791468346e-07,0.0,0.0,0.0,1.2184696791468346e-07,0.0,0.0,0.0,1.2184696791468346e-07,-0.02173086628317833,0.6705945134162914,9.132871627807617,8.999999999999999e-08,0.0,0.0,0.0,8.999999999999999e-08,0.0,0.0,0.0,8.999999999999999e-08
1676469338.4717317,11061,1676469338,466344768,base_link,0.028560279789444955,0.0040939209592155915,0.0010937528657063,-0.9995831084071077,1.0,0.0,0.0,0.0,1.0,0.0,0.0,0.0,1.0,0.04084724560379982,0.02169474586844444,-0.020240098237991336,1.2184696791468346e-07,0.0,0.0,0.0,1.2184696791468346e-07,0.0,0.0,0.0,1.2184696791468346e-07,-0.457466185092926,-1.4289488792419422,9.968987464904785,8.999999999999999e-08,0.0,0.0,0.0,8.999999999999999e-08,0.0,0.0,0.0,8.999999999999999e-08
1676469338.4960773,11062,1676469338,486344768,base_link,0.028279081284536333,0.00393774054370241,0.0011699965146624966,-0.9995916642173553,1.0,0.0,0.0,0.0,1.0,0.0,0.0,0.0,1.0,0.02074744552373886,0.030313627794384963,0.04900293052196502,1.2184696791468346e-07,0.0,0.0,0.0,1.2184696791468346e-07,0.0,0.0,0.0,1.2184696791468346e-07,-0.5572410225868225,-0.783838093280791,9.866141319274902,8.999999999999999e-08,0.0,0.0,0.0,8.999999999999999e-08,0.0,0.0,0.0,8.999999999999999e-08
1676469338.5155635,11063,1676469338,511344768,base_link,0.027930852168338183,0.003373113702181137,0.001205610601654185,-0.999603507481787,1.0,0.0,0.0,0.0,1.0,0.0,0.0,0.0,1.0,0.011064962483942509,0.048647381365299225,0.008070742711424822,1.2184696791468346e-07,0.0,0.0,0.0,1.2184696791468346e-07,0.0,0.0,0.0,1.2184696791468346e-07,0.5325615406036377,-0.7693769335746753,9.926935195922852,8.999999999999999e-08,0.0,0.0,0.0,8.999999999999999e-08,0.0,0.0,0.0,8.999999999999999e-08
1676469338.5319111,11064,1676469338,526344768,base_link,0.02750978539537911,0.0029977341130078767,0.0012897778581304443,-0.9996162779768858,1.0,0.0,0.0,0.0,1.0,0.0,0.0,0.0,1.0,-0.04132411628961563,0.006383572705090052,0.047594595700502396,1.2184696791468346e-07,0.0,0.0,0.0,1.2184696791468346e-07,0.0,0.0,0.0,1.2184696791468346e-07,0.10810156166553497,-1.9571679830551136,9.963462829589844,8.999999999999999e-08,0.0,0.0,0.0,8.999999999999999e-08,0.0,0.0,0.0,8.999999999999999e-08
1676469338.5527675,11065,1676469338,546344768,base_link,0.027055414709562336,0.002796918867832641,0.001276459454001009,-0.9996292592062271,1.0,0.0,0.0,0.0,1.0,0.0,0.0,0.0,1.0,0.06977682560682297,0.018460921943187714,0.004671608097851274,1.2184696791468346e-07,0.0,0.0,0.0,1.2184696791468346e-07,0.0,0.0,0.0,1.2184696791468346e-07,0.40127110481262207,1.2409893274307262,9.33867359161377,8.999999999999999e-08,0.0,0.0,0.0,8.999999999999999e-08,0.0,0.0,0.0,8.999999999999999e-08
1676469338.572299,11066,1676469338,566346816,base_link,0.026637274508396744,0.0026811664996645194,0.0012897778581304586,-0.9996408074427191,1.0,0.0,0.0,0.0,1.0,0.0,0.0,0.0,1.0,0.08033304661512375,0.022126233205199235,-0.04636912792921066,1.2184696791468346e-07,0.0,0.0,0.0,1.2184696791468346e-07,0.0,0.0,0.0,1.2184696791468346e-07,-0.2910441756248474,-0.008826348930596088,9.950117111206055,8.999999999999999e-08,0.0,0.0,0.0,8.999999999999999e-08,0.0,0.0,0.0,8.999999999999999e-08
1676469338.5939033,11067,1676469338,586346816,base_link,0.02626862392700605,0.002475236997840291,0.0013555690886559615,-0.9996509648332103,1.0,0.0,0.0,0.0,1.0,0.0,0.0,0.0,1.0,0.09507732838392258,0.03301567956805229,0.005308357998728748,1.2184696791468346e-07,0.0,0.0,0.0,1.2184696791468346e-07,0.0,0.0,0.0,1.2184696791468346e-07,-0.7761889696121216,-1.0362701416015614,9.454973220825195,8.999999999999999e-08,0.0,0.0,0.0,8.999999999999999e-08,0.0,0.0,0.0,8.999999999999999e-08
1676469338.6144962,11068,1676469338,611346816,base_link,0.025281855567888676,0.0021565462370031967,0.001351902312835507,-0.9996771380261354,1.0,0.0,0.0,0.0,1.0,0.0,0.0,0.0,1.0,0.08587835729122162,-0.009040035307407374,0.042563412338495255,1.2184696791468346e-07,0.0,0.0,0.0,1.2184696791468346e-07,0.0,0.0,0.0,1.2184696791468346e-07,0.413857102394104,-1.7278250455856312,9.933775901794434,8.999999999999999e-08,0.0,0.0,0.0,8.999999999999999e-08,0.0,0.0,0.0,8.999999999999999e-08
1676469338.6327412,11069,1676469338,626346816,base_link,0.02478921949489106,0.0020432476056718185,0.0014172299280273792,-0.9996896134932948,1.0,0.0,0.0,0.0,1.0,0.0,0.0,0.0,1.0,0.010706423781812191,-0.019931199029088013,0.05995629355311394,1.2184696791468346e-07,0.0,0.0,0.0,1.2184696791468346e-07,0.0,0.0,0.0,1.2184696791468346e-07,-0.1293521225452423,-1.941968798637389,9.775238037109375,8.999999999999999e-08,0.0,0.0,0.0,8.999999999999999e-08,0.0,0.0,0.0,8.999999999999999e-08
1676469338.65241,11070,1676469338,646346816,base_link,0.024482008481917124,0.0019887780723275524,0.001385029735765065,-0.9996973685134207,1.0,0.0,0.0,0.0,1.0,0.0,0.0,0.0,1.0,0.041932884603738785,0.0054159816354513125,-0.03304065763950348,1.2184696791468346e-07,0.0,0.0,0.0,1.2184696791468346e-07,0.0,0.0,0.0,1.2184696791468346e-07,0.6294224262237549,0.6655639410018932,9.44863510131836,8.999999999999999e-08,0.0,0.0,0.0,8.999999999999999e-08,0.0,0.0,0.0,8.999999999999999e-08
1676469338.6743953,11071,1676469338,671349120,base_link,0.0242683911315067,0.0017043935290893112,0.0014287360176709009,-0.9997030583379697,1.0,0.0,0.0,0.0,1.0,0.0,0.0,0.0,1.0,0.018798355013132095,0.05463113263249397,-0.00450315140187741,1.2184696791468346e-07,0.0,0.0,0.0,1.2184696791468346e-07,0.0,0.0,0.0,1.2184696791468346e-07,-0.5747803449630737,-0.7753573656082141,9.569127082824707,8.999999999999999e-08,0.0,0.0,0.0,8.999999999999999e-08,0.0,0.0,0.0,8.999999999999999e-08
1676469338.6946273,11072,1676469338,686349120,base_link,0.024253846517503397,0.001369822625986722,0.0013865891691600034,-0.9997039855686369,1.0,0.0,0.0,0.0,1.0,0.0,0.0,0.0,1.0,0.03795711696147919,0.0755915716290474,-0.0530834123492241,1.2184696791468346e-07,0.0,0.0,0.0,1.2184696791468346e-07,0.0,0.0,0.0,1.2184696791468346e-07,-0.22170095145702362,0.27368837594986073,9.241064071655273,8.999999999999999e-08,0.0,0.0,0.0,8.999999999999999e-08,0.0,0.0,0.0,8.999999999999999e-08
1676469338.714812,11073,1676469338,711349120,base_link,0.024412163251400474,0.0009582454793876814,0.0013815736941872009,-0.9997005716739076,1.0,0.0,0.0,0.0,1.0,0.0,0.0,0.0,1.0,-0.03405405953526497,0.015065117739140993,0.03707423806190491,1.2184696791468346e-07,0.0,0.0,0.0,1.2184696791468346e-07,0.0,0.0,0.0,1.2184696791468346e-07,0.01331987977027893,-1.2986469268798815,10.257806777954102,8.999999999999999e-08,0.0,0.0,0.0,8.999999999999999e-08,0.0,0.0,0.0,8.999999999999999e-08
1676469338.7329926,11074,1676469338,726349120,base_link,0.024524821777470094,0.0008022599930488631,0.0014194637109984879,-0.9996979164224514,1.0,0.0,0.0,0.0,1.0,0.0,0.0,0.0,1.0,-0.06759554147720337,-0.008589774370193476,0.038727499544620514,1.2184696791468346e-07,0.0,0.0,0.0,1.2184696791468346e-07,0.0,0.0,0.0,1.2184696791468346e-07,-0.06829476356506348,-1.2410714626312245,9.732041358947754,8.999999999999999e-08,0.0,0.0,0.0,8.999999999999999e-08,0.0,0.0,0.0,8.999999999999999e-08
1676469338.753862,11075,1676469338,751349120,base_link,0.02465458402150104,0.0007518813381881843,0.0013447373485886674,-0.9996949239962071,1.0,0.0,0.0,0.0,1.0,0.0,0.0,0.0,1.0,0.04756983369588852,0.005811410956084727,-0.008407710120081902,1.2184696791468346e-07,0.0,0.0,0.0,1.2184696791468346e-07,0.0,0.0,0.0,1.2184696791468346e-07,0.3606109917163849,-0.0565559528768051,9.472074508666992,8.999999999999999e-08,0.0,0.0,0.0,8.999999999999999e-08,0.0,0.0,0.0,8.999999999999999e-08
1676469338.7728832,11076,1676469338,766351424,base_link,0.02466259587398516,0.0007584233193304858,0.00132589770730428,-0.9996947132619646,1.0,0.0,0.0,0.0,1.0,0.0,0.0,0.0,1.0,0.07807251811027527,-0.017313867807388306,0.0027608741074800513,1.2184696791468346e-07,0.0,0.0,0.0,1.2184696791468346e-07,0.0,0.0,0.0,1.2184696791468346e-07,-0.4133188724517822,0.12597253918647885,9.671051979064941,8.999999999999999e-08,0.0,0.0,0.0,8.999999999999999e-08,0.0,0.0,0.0,8.999999999999999e-08
1676469338.7945561,11077,1676469338,786351424,base_link,0.024442220539833824,0.000926423291672941,0.0012316995008824277,-0.9997000659117254,1.0,0.0,0.0,0.0,1.0,0.0,0.0,0.0,1.0,0.053687579929828644,-0.0018974309787154282,-0.06845395267009735,1.2184696791468346e-07,0.0,0.0,0.0,1.2184696791468346e-07,0.0,0.0,0.0,1.2184696791468346e-07,-0.1651843786239624,-1.025161504745482,10.181379318237305,8.999999999999999e-08,0.0,0.0,0.0,8.999999999999999e-08,0.0,0.0,0.0,8.999999999999999e-08
1676469338.814032,11078,1676469338,811351424,base_link,0.02413348038651235,0.0012501466496400377,0.0012277376971224154,-0.9997072308759722,1.0,0.0,0.0,0.0,1.0,0.0,0.0,0.0,1.0,0.052506573498249054,-0.027551809325814247,-0.014030396007001397,1.2184696791468346e-07,0.0,0.0,0.0,1.2184696791468346e-07,0.0,0.0,0.0,1.2184696791468346e-07,0.015912018716335297,-1.8422636985778795,10.07194995880127,8.999999999999999e-08,0.0,0.0,0.0,8.999999999999999e-08,0.0,0.0,0.0,8.999999999999999e-08
1676469338.8321874,11079,1676469338,826351424,base_link,0.024026136314622148,0.0013974432997405338,0.001254332358532774,-0.9997096332463374,1.0,0.0,0.0,0.0,1.0,0.0,0.0,0.0,1.0,-0.019700787961483,-0.02728482149541378,-0.0014411157462745872,1.2184696791468346e-07,0.0,0.0,0.0,1.2184696791468346e-07,0.0,0.0,0.0,1.2184696791468346e-07,0.11456714570522308,-0.5262733697891223,10.086874008178711,8.999999999999999e-08,0.0,0.0,0.0,8.999999999999999e-08,0.0,0.0,0.0,8.999999999999999e-08
1676469338.8526564,11080,1676469338,846351424,base_link,0.024103855103276235,0.0016322512953288204,0.0011791423807893837,-0.9997075259039119,1.0,0.0,0.0,0.0,1.0,0.0,0.0,0.0,1.0,-0.020717691630125046,-0.04799453914165497,-0.003879957366734737,1.2184696791468346e-07,0.0,0.0,0.0,1.2184696791468346e-07,0.0,0.0,0.0,1.2184696791468346e-07,0.2611839771270752,-0.5297455787658679,9.733169555664062,8.999999999999999e-08,0.0,0.0,0.0,8.999999999999999e-08,0.0,0.0,0.0,8.999999999999999e-08
1676469338.8718104,11081,1676469338,866354240,base_link,0.024190798783398148,0.0018009466906717055,0.0012249560051206942,-0.9997050392398497,1.0,0.0,0.0,0.0,1.0,0.0,0.0,0.0,1.0,0.05273260921239853,0.01676994003355503,0.013073012232780455,1.2184696791468346e-07,0.0,0.0,0.0,1.2184696791468346e-07,0.0,0.0,0.0,1.2184696791468346e-07,-0.0171685591340065,0.2874875068664562,9.200363159179688,8.999999999999999e-08,0.0,0.0,0.0,8.999999999999999e-08,0.0,0.0,0.0,8.999999999999999e-08
1676469338.8941138,11082,1676469338,891354240,base_link,0.024151076695765647,0.0020515637057186248,0.0011777093879400157,-0.9997055871488804,1.0,0.0,0.0,0.0,1.0,0.0,0.0,0.0,1.0,-0.0742306336760521,-0.06566394120454787,0.08858753740787507,1.2184696791468346e-07,0.0,0.0,0.0,1.2184696791468346e-07,0.0,0.0,0.0,1.2184696791468346e-07,-0.10918484628200531,-0.7498733401298511,9.765961647033691,8.999999999999999e-08,0.0,0.0,0.0,8.999999999999999e-08,0.0,0.0,0.0,8.999999999999999e-08
1676469338.9144688,11083,1676469338,906354240,base_link,0.024252303547721194,0.0023366680381040907,0.0011562566420479537,-0.9997025104289391,1.0,0.0,0.0,0.0,1.0,0.0,0.0,0.0,1.0,-0.053661786019802094,-0.0671067088842392,0.04764953628182412,1.2184696791468346e-07,0.0,0.0,0.0,1.2184696791468346e-07,0.0,0.0,0.0,1.2184696791468346e-07,-0.6936925649642944,-1.33063244819641,9.85968017578125,8.999999999999999e-08,0.0,0.0,0.0,8.999999999999999e-08,0.0,0.0,0.0,8.999999999999999e-08
1676469338.9317968,11084,1676469338,926354240,base_link,0.024472495806499312,0.002823362722550689,0.0011734104093918702,-0.9996958933737229,1.0,0.0,0.0,0.0,1.0,0.0,0.0,0.0,1.0,-0.06585314124822617,-0.04749615862965584,0.01938572339713574,1.2184696791468346e-07,0.0,0.0,0.0,1.2184696791468346e-07,0.0,0.0,0.0,1.2184696791468346e-07,0.7241641283035278,-0.3548851907253253,9.857406616210938,8.999999999999999e-08,0.0,0.0,0.0,8.999999999999999e-08,0.0,0.0,0.0,8.999999999999999e-08
1676469338.952377,11085,1676469338,946354240,base_link,0.024753203695749484,0.0032723616608158466,0.0011606399142930516,-0.9996875904445662,1.0,0.0,0.0,0.0,1.0,0.0,0.0,0.0,1.0,-0.029460178688168526,-0.055830683559179306,-0.0008534318185411325,1.2184696791468346e-07,0.0,0.0,0.0,1.2184696791468346e-07,0.0,0.0,0.0,1.2184696791468346e-07,-0.13279134035110474,0.2074640840291989,9.676462173461914,8.999999999999999e-08,0.0,0.0,0.0,8.999999999999999e-08,0.0,0.0,0.0,8.999999999999999e-08
1676469338.973563,11086,1676469338,971356544,base_link,0.025171238529793805,0.0037522338241597415,0.001050341611740043,-0.9996755785927406,1.0,0.0,0.0,0.0,1.0,0.0,0.0,0.0,1.0,-0.11029230803251266,-0.037689153105020516,0.05683289840817452,1.2184696791468346e-07,0.0,0.0,0.0,1.2184696791468346e-07,0.0,0.0,0.0,1.2184696791468346e-07,-0.14228004217147827,0.18195486068725694,8.841206550598145,8.999999999999999e-08,0.0,0.0,0.0,8.999999999999999e-08,0.0,0.0,0.0,8.999999999999999e-08
1676469338.9930449,11087,1676469338,986356544,base_link,0.025509971434186842,0.004078059256196319,0.001065472330355497,-0.9996657583770375,1.0,0.0,0.0,0.0,1.0,0.0,0.0,0.0,1.0,-0.06020614504814148,-0.025021169334650036,0.016691118478775028,1.2184696791468346e-07,0.0,0.0,0.0,1.2184696791468346e-07,0.0,0.0,0.0,1.2184696791468346e-07,0.050195738673210144,-0.6552755832672107,9.96749210357666,8.999999999999999e-08,0.0,0.0,0.0,8.999999999999999e-08,0.0,0.0,0.0,8.999999999999999e-08
1676469339.0141692,11088,1676469339,6356544,base_link,0.025463764000239728,0.004345766818314407,0.0010610890581103467,-0.9996657583770375,1.0,0.0,0.0,0.0,1.0,0.0,0.0,0.0,1.0,0.002860737731680274,-0.03480138257145881,0.03393882885575295,1.2184696791468346e-07,0.0,0.0,0.0,1.2184696791468346e-07,0.0,0.0,0.0,1.2184696791468346e-07,-0.04437848925590515,-0.658169090747832,10.110154151916504,8.999999999999999e-08,0.0,0.0,0.0,8.999999999999999e-08,0.0,0.0,0.0,8.999999999999999e-08
1676469339.0338602,11089,1676469339,31356544,base_link,0.02545463657335909,0.0044344859344298375,0.0010054130712274585,-0.999665631936492,1.0,0.0,0.0,0.0,1.0,0.0,0.0,0.0,1.0,-0.008663326501846313,0.009315722621977333,0.034877173602581024,1.2184696791468346e-07,0.0,0.0,0.0,1.2184696791468346e-07,0.0,0.0,0.0,1.2184696791468346e-07,0.7367651462554932,-0.19636152684688452,9.476530075073242,8.999999999999999e-08,0.0,0.0,0.0,8.999999999999999e-08,0.0,0.0,0.0,8.999999999999999e-08
1676469339.0514848,11090,1676469339,46356544,base_link,0.025434135424281076,0.004413237995879777,0.001024589887299933,-0.9996662641392197,1.0,0.0,0.0,0.0,1.0,0.0,0.0,0.0,1.0,0.018592705950140953,0.002979537472128871,0.0231274776160717,1.2184696791468346e-07,0.0,0.0,0.0,1.2184696791468346e-07,0.0,0.0,0.0,1.2184696791468346e-07,0.4316040575504303,-0.8865287303924548,9.722833633422852,8.999999999999999e-08,0.0,0.0,0.0,8.999999999999999e-08,0.0,0.0,0.0,8.999999999999999e-08
1676469339.0729146,11091,1676469339,66358848,base_link,0.025703830473724255,0.004440127685229726,0.000965036390353999,-0.9996593099092154,1.0,0.0,0.0,0.0,1.0,0.0,0.0,0.0,1.0,-0.023794328793883324,0.026218168437480923,-0.037177059799432755,1.2184696791468346e-07,0.0,0.0,0.0,1.2184696791468346e-07,0.0,0.0,0.0,1.2184696791468346e-07,-0.35044538974761963,0.006771646440030385,10.127793312072754,8.999999999999999e-08,0.0,0.0,0.0,8.999999999999999e-08,0.0,0.0,0.0,8.999999999999999e-08
1676469339.0950053,11092,1676469339,91358848,base_link,0.026515164551548554,0.0044372649922535265,0.0009203607309324696,-0.999638152191263,1.0,0.0,0.0,0.0,1.0,0.0,0.0,0.0,1.0,-0.028464511036872864,-0.0018671040888875701,0.017594631761312485,1.2184696791468346e-07,0.0,0.0,0.0,1.2184696791468346e-07,0.0,0.0,0.0,1.2184696791468346e-07,0.012803137302398682,-1.7715733051300038,9.969381332397461,8.999999999999999e-08,0.0,0.0,0.0,8.999999999999999e-08,0.0,0.0,0.0,8.999999999999999e-08
1676469339.1125808,11093,1676469339,106358848,base_link,0.026796066711428583,0.004557822101151889,0.0009388210505802345,-0.9996301442900458,1.0,0.0,0.0,0.0,1.0,0.0,0.0,0.0,1.0,-0.04895415157079697,-0.043074298650026314,0.06819471716880798,1.2184696791468346e-07,0.0,0.0,0.0,1.2184696791468346e-07,0.0,0.0,0.0,1.2184696791468346e-07,-0.16248230636119843,-1.68699276447296,10.074878692626953,8.999999999999999e-08,0.0,0.0,0.0,8.999999999999999e-08,0.0,0.0,0.0,8.999999999999999e-08
1676469339.1326861,11094,1676469339,126358848,base_link,0.027071516122782514,0.004788071651655921,0.0008956205308565977,-0.9996216727734952,1.0,0.0,0.0,0.0,1.0,0.0,0.0,0.0,1.0,0.031795285642147064,-0.00664320075884462,-0.05279101803898811,1.2184696791468346e-07,0.0,0.0,0.0,1.2184696791468346e-07,0.0,0.0,0.0,1.2184696791468346e-07,0.17199185490608215,0.6710526347160352,9.822087287902832,8.999999999999999e-08,0.0,0.0,0.0,8.999999999999999e-08,0.0,0.0,0.0,8.999999999999999e-08
1676469339.153417,11095,1676469339,151358848,base_link,0.02737448347494701,0.005141399219434872,0.000837078558274941,-0.9996116839703981,1.0,0.0,0.0,0.0,1.0,0.0,0.0,0.0,1.0,-0.08045179396867752,-0.034249447286129,0.027470054104924205,1.2184696791468346e-07,0.0,0.0,0.0,1.2184696791468346e-07,0.0,0.0,0.0,1.2184696791468346e-07,-0.7605345845222473,-1.222379684448241,9.659666061401367,8.999999999999999e-08,0.0,0.0,0.0,8.999999999999999e-08,0.0,0.0,0.0,8.999999999999999e-08
1676469339.1720622,11096,1676469339,166361408,base_link,0.027601444254178178,0.005357849628318632,0.0008281012795421142,-0.9996043082719087,1.0,0.0,0.0,0.0,1.0,0.0,0.0,0.0,1.0,-0.08750524371862411,-0.04408124834299087,0.04023511707782746,1.2184696791468346e-07,0.0,0.0,0.0,1.2184696791468346e-07,0.0,0.0,0.0,1.2184696791468346e-07,-0.6711485385894775,-0.895522654056548,9.511343002319336,8.999999999999999e-08,0.0,0.0,0.0,8.999999999999999e-08,0.0,0.0,0.0,8.999999999999999e-08
1676469339.1924322,11097,1676469339,186361408,base_link,0.027834052711109804,0.005662718857022185,0.0007624364895621361,-0.9995963003706916,1.0,0.0,0.0,0.0,1.0,0.0,0.0,0.0,1.0,-0.0876961499452591,-0.036318525671958916,0.032552983611822135,1.2184696791468346e-07,0.0,0.0,0.0,1.2184696791468346e-07,0.0,0.0,0.0,1.2184696791468346e-07,0.3577885329723358,-0.3569522202014912,9.231054306030273,8.999999999999999e-08,0.0,0.0,0.0,8.999999999999999e-08,0.0,0.0,0.0,8.999999999999999e-08
1676469339.2145693,11098,1676469339,211361408,base_link,0.02814016395475541,0.005715308904340668,0.0006697134228381715,-0.9995874495325043,1.0,0.0,0.0,0.0,1.0,0.0,0.0,0.0,1.0,-0.05614191293716431,0.038931407034397125,-0.021050510928034786,1.2184696791468346e-07,0.0,0.0,0.0,1.2184696791468346e-07,0.0,0.0,0.0,1.2184696791468346e-07,0.15936100482940674,0.9304141402244579,9.50371265411377,8.999999999999999e-08,0.0,0.0,0.0,8.999999999999999e-08,0.0,0.0,0.0,8.999999999999999e-08
1676469339.2321193,11099,1676469339,226361408,base_link,0.0283096680427541,0.0056196987784937055,0.0006077997023756625,-0.9995832769945018,1.0,0.0,0.0,0.0,1.0,0.0,0.0,0.0,1.0,-0.013625778257846832,0.017393689602613442,-0.06285171955823898,1.2184696791468346e-07,0.0,0.0,0.0,1.2184696791468346e-07,0.0,0.0,0.0,1.2184696791468346e-07,0.3759106993675232,0.740286946296693,9.26308822631836,8.999999999999999e-08,0.0,0.0,0.0,8.999999999999999e-08,0.0,0.0,0.0,8.999999999999999e-08
1676469339.2524784,11100,1676469339,246361408,base_link,0.02848610792151086,0.005662135386588113,0.0005921210747296242,-0.9995780507852864,1.0,0.0,0.0,0.0,1.0,0.0,0.0,0.0,1.0,-0.08639168739318848,-0.026911625638604157,0.0653359442949295,1.2184696791468346e-07,0.0,0.0,0.0,1.2184696791468346e-07,0.0,0.0,0.0,1.2184696791468346e-07,-0.5800402164459229,-1.6072639226913439,10.072035789489746,8.999999999999999e-08,0.0,0.0,0.0,8.999999999999999e-08,0.0,0.0,0.0,8.999999999999999e-08
1676469339.2719154,11101,1676469339,266363712,base_link,0.02877074402875115,0.005906336861038263,0.0005241382080815439,-0.9995684834506744,1.0,0.0,0.0,0.0,1.0,0.0,0.0,0.0,1.0,-0.010643276385962963,-0.029246341437101364,-0.012589839287102219,1.2184696791468346e-07,0.0,0.0,0.0,1.2184696791468346e-07,0.0,0.0,0.0,1.2184696791468346e-07,0.5807099938392639,0.4480667412281048,9.74140739440918,8.999999999999999e-08,0.0,0.0,0.0,8.999999999999999e-08,0.0,0.0,0.0,8.999999999999999e-08
1676469339.2925985,11102,1676469339,286363712,base_link,0.02903627707690388,0.006105673015248569,0.00047992616399364336,-0.9995595904656387,1.0,0.0,0.0,0.0,1.0,0.0,0.0,0.0,1.0,-0.002624473301693797,-0.0036574690602719797,-0.009921032004058361,1.2184696791468346e-07,0.0,0.0,0.0,1.2184696791468346e-07,0.0,0.0,0.0,1.2184696791468346e-07,0.1243213415145874,-0.696692407131194,9.208725929260254,8.999999999999999e-08,0.0,0.0,0.0,8.999999999999999e-08,0.0,0.0,0.0,8.999999999999999e-08
1676469339.3136904,11103,1676469339,306363712,base_link,0.0293234235558086,0.0059355894080828555,0.0003897740550288474,-0.9995522990608462,1.0,0.0,0.0,0.0,1.0,0.0,0.0,0.0,1.0,-0.006935451179742813,0.053901925683021545,-0.017881877720355994,1.2184696791468346e-07,0.0,0.0,0.0,1.2184696791468346e-07,0.0,0.0,0.0,1.2184696791468346e-07,-0.13781531155109406,-0.47870954871177557,9.688064575195312,8.999999999999999e-08,0.0,0.0,0.0,8.999999999999999e-08,0.0,0.0,0.0,8.999999999999999e-08
1676469339.333562,11104,1676469339,331363712,base_link,0.02979367043262382,0.005446655672309117,0.0003420216756659708,-0.9995412144396879,1.0,0.0,0.0,0.0,1.0,0.0,0.0,0.0,1.0,-0.04090385511517525,0.027458954602479938,0.03790581226348877,1.2184696791468346e-07,0.0,0.0,0.0,1.2184696791468346e-07,0.0,0.0,0.0,1.2184696791468346e-07,0.2525656819343567,-1.0011507272720324,10.096631050109863,8.999999999999999e-08,0.0,0.0,0.0,8.999999999999999e-08,0.0,0.0,0.0,8.999999999999999e-08
1676469339.3524735,11105,1676469339,346363712,base_link,0.03023308688975332,0.005101595472283381,0.00035529793294688844,-0.9995298769374384,1.0,0.0,0.0,0.0,1.0,0.0,0.0,0.0,1.0,-0.07437220215797424,-0.0031823036260902834,0.03973172605037689,1.2184696791468346e-07,0.0,0.0,0.0,1.2184696791468346e-07,0.0,0.0,0.0,1.2184696791468346e-07,-0.10505986213684082,-1.1016501188278185,10.242122650146484,8.999999999999999e-08,0.0,0.0,0.0,8.999999999999999e-08,0.0,0.0,0.0,8.999999999999999e-08
1676469339.3733985,11106,1676469339,371366016,base_link,0.03099979338190515,0.004645432228315879,0.0003008442046708489,-0.999508634925789,1.0,0.0,0.0,0.0,1.0,0.0,0.0,0.0,1.0,-0.056075870990753174,0.02204773761332035,0.011741393245756623,1.2184696791468346e-07,0.0,0.0,0.0,1.2184696791468346e-07,0.0,0.0,0.0,1.2184696791468346e-07,0.06379887461662292,-0.03641304746270058,9.88850212097168,8.999999999999999e-08,0.0,0.0,0.0,8.999999999999999e-08,0.0,0.0,0.0,8.999999999999999e-08
1676469339.392671,11107,1676469339,386366016,base_link,0.0313277116683881,0.004474437195551117,0.00029814680636612307,-0.9994991097380255,1.0,0.0,0.0,0.0,1.0,0.0,0.0,0.0,1.0,-0.02940187230706215,0.013002849183976652,0.01286893244832754,1.2184696791468346e-07,0.0,0.0,0.0,1.2184696791468346e-07,0.0,0.0,0.0,1.2184696791468346e-07,-0.33550772070884705,-0.48269137740135076,9.678960800170898,8.999999999999999e-08,0.0,0.0,0.0,8.999999999999999e-08,0.0,0.0,0.0,8.999999999999999e-08
1676469339.4129283,11108,1676469339,406366016,base_link,0.031554145612012884,0.004317023984718993,0.000313783287163696,-0.9994927455639003,1.0,0.0,0.0,0.0,1.0,0.0,0.0,0.0,1.0,-0.026861410588026047,0.0028802535962313422,0.006422477308660746,1.2184696791468346e-07,0.0,0.0,0.0,1.2184696791468346e-07,0.0,0.0,0.0,1.2184696791468346e-07,0.22542069852352142,-0.7213872671127308,9.332098960876465,8.999999999999999e-08,0.0,0.0,0.0,8.999999999999999e-08,0.0,0.0,0.0,8.999999999999999e-08
1676469339.434607,11109,1676469339,431366016,base_link,0.03163025755206749,0.004046204141256179,0.0002932999187873816,-0.999491396864748,1.0,0.0,0.0,0.0,1.0,0.0,0.0,0.0,1.0,0.057739753276109695,0.01722811721265316,-0.0006898028077557704,1.2184696791468346e-07,0.0,0.0,0.0,1.2184696791468346e-07,0.0,0.0,0.0,1.2184696791468346e-07,0.36193355917930603,-0.6939494013786304,9.78021240234375,8.999999999999999e-08,0.0,0.0,0.0,8.999999999999999e-08,0.0,0.0,0.0,8.999999999999999e-08
1676469339.4517472,11110,1676469339,446366016,base_link,0.031594494634016985,0.003919735936854161,0.000386402307147974,-0.99949304059184,1.0,0.0,0.0,0.0,1.0,0.0,0.0,0.0,1.0,0.06341404467821121,0.027441451326012615,0.027793597429990765,1.2184696791468346e-07,0.0,0.0,0.0,1.2184696791468346e-07,0.0,0.0,0.0,1.2184696791468346e-07,-0.1259138286113739,-0.31433686614036443,9.652828216552734,8.999999999999999e-08,0.0,0.0,0.0,8.999999999999999e-08,0.0,0.0,0.0,8.999999999999999e-08
1676469339.472892,11111,1676469339,466368576,base_link,0.031396038295269345,0.003638571676259955,0.00034779579391198045,-0.9995003741434808,1.0,0.0,0.0,0.0,1.0,0.0,0.0,0.0,1.0,0.09216364473104477,0.04430176317691802,-0.07688981294631958,1.2184696791468346e-07,0.0,0.0,0.0,1.2184696791468346e-07,0.0,0.0,0.0,1.2184696791468346e-07,0.29657652974128723,-0.14518010616302368,10.040495872497559,8.999999999999999e-08,0.0,0.0,0.0,8.999999999999999e-08,0.0,0.0,0.0,8.999999999999999e-08
1676469339.4944813,11112,1676469339,491368576,base_link,0.031115428529150856,0.003339343539811784,0.00037506480489854217,-0.9995101943591839,1.0,0.0,0.0,0.0,1.0,0.0,0.0,0.0,1.0,0.04447472095489502,0.006776316091418275,0.07261107116937637,1.2184696791468346e-07,0.0,0.0,0.0,1.2184696791468346e-07,0.0,0.0,0.0,1.2184696791468346e-07,-0.11714832484722137,-2.2225060462951647,10.288726806640625,8.999999999999999e-08,0.0,0.0,0.0,8.999999999999999e-08,0.0,0.0,0.0,8.999999999999999e-08
1676469339.5128317,11113,1676469339,506368576,base_link,0.030628629794672,0.0032300225173086208,0.0005036548397052822,-0.9995255779588903,1.0,0.0,0.0,0.0,1.0,0.0,0.0,0.0,1.0,0.005319678224623203,-0.0014642170863225941,0.09370633214712143,1.2184696791468346e-07,0.0,0.0,0.0,1.2184696791468346e-07,0.0,0.0,0.0,1.2184696791468346e-07,-0.3172074258327484,-1.7378411293029774,9.571015357971191,8.999999999999999e-08,0.0,0.0,0.0,8.999999999999999e-08,0.0,0.0,0.0,8.999999999999999e-08
1676469339.5327566,11114,1676469339,526368576,base_link,0.029965786308141167,0.0030983715676287786,0.0003842106710254118,-0.9995460613272666,1.0,0.0,0.0,0.0,1.0,0.0,0.0,0.0,1.0,0.14778846502304077,0.016653379425406453,-0.042300816625356674,1.2184696791468346e-07,0.0,0.0,0.0,1.2184696791468346e-07,0.0,0.0,0.0,1.2184696791468346e-07,0.6112358570098877,1.0027660131454479,9.645413398742676,8.999999999999999e-08,0.0,0.0,0.0,8.999999999999999e-08,0.0,0.0,0.0,8.999999999999999e-08
1676469339.5513318,11115,1676469339,546368576,base_link,0.029293567781994694,0.0028855062750464764,0.0003535277653094454,-0.9995666289893399,1.0,0.0,0.0,0.0,1.0,0.0,0.0,0.0,1.0,0.1004396378993988,0.026316957548260682,-0.06688117980957031,1.2184696791468346e-07,0.0,0.0,0.0,1.2184696791468346e-07,0.0,0.0,0.0,1.2184696791468346e-07,-0.2802048325538635,-1.3616694211959828,9.29294204711914,8.999999999999999e-08,0.0,0.0,0.0,8.999999999999999e-08,0.0,0.0,0.0,8.999999999999999e-08
1676469339.572926,11116,1676469339,566370624,base_link,0.028540764481495395,0.0026259185667118165,0.00033696405384467637,-0.9995891775532932,1.0,0.0,0.0,0.0,1.0,0.0,0.0,0.0,1.0,-0.0007469230331480503,0.015986714512109763,0.06580392271280289,1.2184696791468346e-07,0.0,0.0,0.0,1.2184696791468346e-07,0.0,0.0,0.0,1.2184696791468346e-07,-0.5280628800392151,-1.2370250225067128,9.244454383850098,8.999999999999999e-08,0.0,0.0,0.0,8.999999999999999e-08,0.0,0.0,0.0,8.999999999999999e-08
1676469339.5945253,11117,1676469339,590370624,base_link,0.02777866516672141,0.002516018025041629,0.0002313019046278624,-0.9996108831802764,1.0,0.0,0.0,0.0,1.0,0.0,0.0,0.0,1.0,0.07379556447267532,0.006283823400735849,-0.04839100316166878,1.2184696791468346e-07,0.0,0.0,0.0,1.2184696791468346e-07,0.0,0.0,0.0,1.2184696791468346e-07,0.765154242515564,0.4988217353820813,9.945260047912598,8.999999999999999e-08,0.0,0.0,0.0,8.999999999999999e-08,0.0,0.0,0.0,8.999999999999999e-08
1676469339.6122177,11118,1676469339,605370624,base_link,0.027547280285485615,0.0025422478527945803,7.009020907369773e-05,-0.9996173316480985,1.0,0.0,0.0,0.0,1.0,0.0,0.0,0.0,1.0,0.07737976312637329,-0.000981469405815012,-0.05477254465222359,1.2184696791468346e-07,0.0,0.0,0.0,1.2184696791468346e-07,0.0,0.0,0.0,1.2184696791468346e-07,0.4142766296863556,0.5771815776824962,9.50725269317627,8.999999999999999e-08,0.0,0.0,0.0,8.999999999999999e-08,0.0,0.0,0.0,8.999999999999999e-08
