Time,header.seq,header.stamp.secs,header.stamp.nsecs,header.frame_id,orientation.x,orientation.y,orientation.z,orientation.w,orientation_covariance_0,orientation_covariance_1,orientation_covariance_2,orientation_covariance_3,orientation_covariance_4,orientation_covariance_5,orientation_covariance_6,orientation_covariance_7,orientation_covariance_8,angular_velocity.x,angular_velocity.y,angular_velocity.z,angular_velocity_covariance_0,angular_velocity_covariance_1,angular_velocity_covariance_2,angular_velocity_covariance_3,angular_velocity_covariance_4,angular_velocity_covariance_5,angular_velocity_covariance_6,angular_velocity_covariance_7,angular_velocity_covariance_8,linear_acceleration.x,linear_acceleration.y,linear_acceleration.z,linear_acceleration_covariance_0,linear_acceleration_covariance_1,linear_acceleration_covariance_2,linear_acceleration_covariance_3,linear_acceleration_covariance_4,linear_acceleration_covariance_5,linear_acceleration_covariance_6,linear_acceleration_covariance_7,linear_acceleration_covariance_8
1676469259.5766606,7098,1676469259,179530688,base_link,0.012800142772550338,0.09672324782373817,0.01405327658007855,-0.9951298302465981,1.0,0.0,0.0,0.0,1.0,0.0,0.0,0.0,1.0,0.0011339026968926191,0.001172902761027217,-0.0003348956233821811,1.2184696791468346e-07,0.0,0.0,0.0,1.2184696791468346e-07,0.0,0.0,0.0,1.2184696791468346e-07,1.8843799829483032,-0.22942215204238775,9.626115798950195,8.999999999999999e-08,0.0,0.0,0.0,8.999999999999999e-08,0.0,0.0,0.0,8.999999999999999e-08
1676469259.5766902,7099,1676469259,194530688,base_link,0.012807036416459902,0.09672695411222909,0.014054920307170482,-0.9951293666312645,1.0,0.0,0.0,0.0,1.0,0.0,0.0,0.0,1.0,0.0011974603403359652,0.0002594345714896917,-0.0006162159843370318,1.2184696791468346e-07,0.0,0.0,0.0,1.2184696791468346e-07,0.0,0.0,0.0,1.2184696791468346e-07,1.9040213823318481,-0.2322829663753498,9.630653381347656,8.999999999999999e-08,0.0,0.0,0.0,8.999999999999999e-08,0.0,0.0,0.0,8.999999999999999e-08
1676469259.5767522,7100,1676469259,219530688,base_link,0.012808474677665339,0.09672967785231411,0.014048682573590847,-0.9951291980438705,1.0,0.0,0.0,0.0,1.0,0.0,0.0,0.0,1.0,-0.0006561486516147852,0.0006016216939315201,0.0012526196660473943,1.2184696791468346e-07,0.0,0.0,0.0,1.2184696791468346e-07,0.0,0.0,0.0,1.2184696791468346e-07,1.9026483297348022,-0.21093186736106756,9.631280899047852,8.999999999999999e-08,0.0,0.0,0.0,8.999999999999999e-08,0.0,0.0,0.0,8.999999999999999e-08
1676469259.5767817,7101,1676469259,239530688,base_link,0.012810916560700939,0.09672721489585426,0.014056142565777304,-0.995129240190719,1.0,0.0,0.0,0.0,1.0,0.0,0.0,0.0,1.0,-0.0017190026119351387,-2.886913716793082e-05,-0.0017819332424551249,1.2184696791468346e-07,0.0,0.0,0.0,1.2184696791468346e-07,0.0,0.0,0.0,1.2184696791468346e-07,1.9077303409576416,-0.2254208177328098,9.611306190490723,8.999999999999999e-08,0.0,0.0,0.0,8.999999999999999e-08,0.0,0.0,0.0,8.999999999999999e-08
1676469259.5768518,7102,1676469259,254530688,base_link,0.012802903391127801,0.09672553429026988,0.014061916684023262,-0.9951294509249615,1.0,0.0,0.0,0.0,1.0,0.0,0.0,0.0,1.0,-0.0021003629080951214,0.0005858150543645024,0.0001196677039843052,1.2184696791468346e-07,0.0,0.0,0.0,1.2184696791468346e-07,0.0,0.0,0.0,1.2184696791468346e-07,1.8819233179092407,-0.23939874768257025,9.625173568725586,8.999999999999999e-08,0.0,0.0,0.0,8.999999999999999e-08,0.0,0.0,0.0,8.999999999999999e-08
1676469259.5769167,7103,1676469259,279529152,base_link,0.012807581691312513,0.09672480725713307,0.014065836340934793,-0.995129408778113,1.0,0.0,0.0,0.0,1.0,0.0,0.0,0.0,1.0,0.0012252137530595064,-0.0014412173768505454,0.00010669071343727427,1.2184696791468346e-07,0.0,0.0,0.0,1.2184696791468346e-07,0.0,0.0,0.0,1.2184696791468346e-07,1.8885834217071533,-0.21565963327884557,9.631274223327637,8.999999999999999e-08,0.0,0.0,0.0,8.999999999999999e-08,0.0,0.0,0.0,8.999999999999999e-08
1676469259.5769327,7104,1676469259,299529152,base_link,0.012822338356647388,0.09672717274900575,0.01407089396275612,-0.9951289030159309,1.0,0.0,0.0,0.0,1.0,0.0,0.0,0.0,1.0,-0.0029551261104643345,-0.0006118362653069199,-0.0005437282961793243,1.2184696791468346e-07,0.0,0.0,0.0,1.2184696791468346e-07,0.0,0.0,0.0,1.2184696791468346e-07,1.8674631118774414,-0.2267759591341007,9.630950927734375,8.999999999999999e-08,0.0,0.0,0.0,8.999999999999999e-08,0.0,0.0,0.0,8.999999999999999e-08
1676469259.577017,7105,1676469259,314529152,base_link,0.012822641287121057,0.09672989385491274,0.014075235088152706,-0.9951286079879913,1.0,0.0,0.0,0.0,1.0,0.0,0.0,0.0,1.0,0.0026508986484259367,0.0001364931231364607,-0.000579018727876246,1.2184696791468346e-07,0.0,0.0,0.0,1.2184696791468346e-07,0.0,0.0,0.0,1.2184696791468346e-07,1.8998879194259644,-0.21669656038284185,9.629559516906738,8.999999999999999e-08,0.0,0.0,0.0,8.999999999999999e-08,0.0,0.0,0.0,8.999999999999999e-08
1676469259.5770593,7106,1676469259,339529152,base_link,0.012817438785507994,0.09672797353912746,0.014075319381849727,-0.9951287765753853,1.0,0.0,0.0,0.0,1.0,0.0,0.0,0.0,1.0,0.001348245656117797,0.0006434906972572207,0.000121487391879782,1.2184696791468346e-07,0.0,0.0,0.0,1.2184696791468346e-07,0.0,0.0,0.0,1.2184696791468346e-07,1.8969221115112305,-0.23839768767356753,9.638504981994629,8.999999999999999e-08,0.0,0.0,0.0,8.999999999999999e-08,0.0,0.0,0.0,8.999999999999999e-08
1676469259.5771496,7107,1676469259,354529152,base_link,0.012824356137019849,0.09673292052547142,0.014076625934153573,-0.9951282286663548,1.0,0.0,0.0,0.0,1.0,0.0,0.0,0.0,1.0,-0.0006808822508901358,-0.0003553704591467975,0.0011378555791452527,1.2184696791468346e-07,0.0,0.0,0.0,1.2184696791468346e-07,0.0,0.0,0.0,1.2184696791468346e-07,1.8948990106582642,-0.24717471003532293,9.622472763061523,8.999999999999999e-08,0.0,0.0,0.0,8.999999999999999e-08,0.0,0.0,0.0,8.999999999999999e-08
1676469259.5772042,7108,1676469259,379527360,base_link,0.012826047279316348,0.09673626593157197,0.014065246285055642,-0.9951280600789606,1.0,0.0,0.0,0.0,1.0,0.0,0.0,0.0,1.0,0.0005156775005161762,0.0006103807827457785,-0.0005572097143158318,1.2184696791468346e-07,0.0,0.0,0.0,1.2184696791468346e-07,0.0,0.0,0.0,1.2184696791468346e-07,1.8992971181869507,-0.2378169596195209,9.634207725524902,8.999999999999999e-08,0.0,0.0,0.0,8.999999999999999e-08,0.0,0.0,0.0,8.999999999999999e-08
1676469259.5772474,7109,1676469259,399527360,base_link,0.012830135523621904,0.09673746711675453,0.014065962781480331,-0.9951278493447181,1.0,0.0,0.0,0.0,1.0,0.0,0.0,0.0,1.0,-0.0026594572700560093,0.0010833481792360544,6.805307930335389e-05,1.2184696791468346e-07,0.0,0.0,0.0,1.2184696791468346e-07,0.0,0.0,0.0,1.2184696791468346e-07,1.8743964433670044,-0.22241522371768835,9.628439903259277,8.999999999999999e-08,0.0,0.0,0.0,8.999999999999999e-08,0.0,0.0,0.0,8.999999999999999e-08
1676469259.577333,7110,1676469259,414527360,base_link,0.0128270166568321,0.0967357074858292,0.014065119844510109,-0.9951281022258092,1.0,0.0,0.0,0.0,1.0,0.0,0.0,0.0,1.0,-0.0028320900164544582,-0.00034711556509137154,-0.00017920602113008494,1.2184696791468346e-07,0.0,0.0,0.0,1.2184696791468346e-07,0.0,0.0,0.0,1.2184696791468346e-07,1.8888046741485596,-0.22892975807189825,9.625757217407227,8.999999999999999e-08,0.0,0.0,0.0,8.999999999999999e-08,0.0,0.0,0.0,8.999999999999999e-08
1676469259.5773854,7111,1676469259,439527360,base_link,0.012837764103202377,0.09673366336367642,0.014070556787968036,-0.9951280600789607,1.0,0.0,0.0,0.0,1.0,0.0,0.0,0.0,1.0,0.002105725696310401,-6.821111310273405e-05,0.0003665634721983224,1.2184696791468346e-07,0.0,0.0,0.0,1.2184696791468346e-07,0.0,0.0,0.0,1.2184696791468346e-07,1.8819632530212402,-0.22645483911037328,9.599247932434082,8.999999999999999e-08,0.0,0.0,0.0,8.999999999999999e-08,0.0,0.0,0.0,8.999999999999999e-08
1676469259.5774512,7112,1676469259,459527360,base_link,0.012846404207147109,0.09673520172364707,0.014064824816570532,-0.9951278914915666,1.0,0.0,0.0,0.0,1.0,0.0,0.0,0.0,1.0,-0.001839453587308526,0.00015933474060148003,0.00011317993630655109,1.2184696791468346e-07,0.0,0.0,0.0,1.2184696791468346e-07,0.0,0.0,0.0,1.2184696791468346e-07,1.8942688703536987,-0.2268132567405689,9.61196517944336,8.999999999999999e-08,0.0,0.0,0.0,8.999999999999999e-08,0.0,0.0,0.0,8.999999999999999e-08
1676469259.5775366,7113,1676469259,474525568,base_link,0.012848187545674725,0.0967345774234535,0.014062633180447957,-0.9951279757852637,1.0,0.0,0.0,0.0,1.0,0.0,0.0,0.0,1.0,0.002018423518165946,0.0010755499824881554,-0.00011288444511592402,1.2184696791468346e-07,0.0,0.0,0.0,1.2184696791468346e-07,0.0,0.0,0.0,1.2184696791468346e-07,1.870811939239502,-0.2110725194215763,9.612054824829102,8.999999999999999e-08,0.0,0.0,0.0,8.999999999999999e-08,0.0,0.0,0.0,8.999999999999999e-08
1676469259.580524,7114,1676469259,498525568,base_link,0.012843514513846079,0.09673023102970082,0.014060525838022402,-0.9951284815474458,1.0,0.0,0.0,0.0,1.0,0.0,0.0,0.0,1.0,0.0005913630593568087,0.00038126588333398125,0.0016310480423271656,1.2184696791468346e-07,0.0,0.0,0.0,1.2184696791468346e-07,0.0,0.0,0.0,1.2184696791468346e-07,1.891274333000183,-0.2325026392936695,9.612076759338379,8.999999999999999e-08,0.0,0.0,0.0,8.999999999999999e-08,0.0,0.0,0.0,8.999999999999999e-08
1676469259.5892022,7115,1676469259,518525568,base_link,0.012848774967375846,0.09673070254756853,0.014061705949780711,-0.9951283129600518,1.0,0.0,0.0,0.0,1.0,0.0,0.0,0.0,1.0,0.0020915509667247534,-0.001034313696436584,-0.00016008174861781286,1.2184696791468346e-07,0.0,0.0,0.0,1.2184696791468346e-07,0.0,0.0,0.0,1.2184696791468346e-07,1.882150650024414,-0.19938540458679083,9.621454238891602,8.999999999999999e-08,0.0,0.0,0.0,8.999999999999999e-08,0.0,0.0,0.0,8.999999999999999e-08
1676469259.5895798,7116,1676469259,533525568,base_link,0.012860149348117722,0.09673460639941185,0.014067817242814818,-0.9951277650510211,1.0,0.0,0.0,0.0,1.0,0.0,0.0,0.0,1.0,0.0007994875777512789,-0.0007926691323518754,-0.0005225298227742313,1.2184696791468346e-07,0.0,0.0,0.0,1.2184696791468346e-07,0.0,0.0,0.0,1.2184696791468346e-07,1.8757882118225098,-0.22885411977767828,9.61480712890625,8.999999999999999e-08,0.0,0.0,0.0,8.999999999999999e-08,0.0,0.0,0.0,8.999999999999999e-08
1676469259.5915804,7117,1676469259,558525568,base_link,0.012860288959553417,0.09673185368336848,0.01407026176002846,-0.9951279336384151,1.0,0.0,0.0,0.0,1.0,0.0,0.0,0.0,1.0,-0.0012771388282999396,0.0007940002251416445,0.00041108616278506805,1.2184696791468346e-07,0.0,0.0,0.0,1.2184696791468346e-07,0.0,0.0,0.0,1.2184696791468346e-07,1.8921936750411987,-0.20234875380992773,9.577268600463867,8.999999999999999e-08,0.0,0.0,0.0,8.999999999999999e-08,0.0,0.0,0.0,8.999999999999999e-08
1676469259.5991714,7118,1676469259,578524032,base_link,0.0128471048985036,0.09673379507257802,0.014069671704149304,-0.9951279336384151,1.0,0.0,0.0,0.0,1.0,0.0,0.0,0.0,1.0,0.0027557217981666327,0.0006156923482194543,0.00031681198743171984,1.2184696791468346e-07,0.0,0.0,0.0,1.2184696791468346e-07,0.0,0.0,0.0,1.2184696791468346e-07,1.8844083547592163,-0.19543193280696752,9.598554611206055,8.999999999999999e-08,0.0,0.0,0.0,8.999999999999999e-08,0.0,0.0,0.0,8.999999999999999e-08
1676469259.6033363,7119,1676469259,598524032,base_link,0.012848366669780897,0.0967332497977254,0.014071020403301658,-0.9951279336384151,1.0,0.0,0.0,0.0,1.0,0.0,0.0,0.0,1.0,0.0013997310306876898,0.00015882414299994713,0.0003430887882132083,1.2184696791468346e-07,0.0,0.0,0.0,1.2184696791468346e-07,0.0,0.0,0.0,1.2184696791468346e-07,1.8858110904693604,-0.22711592912673834,9.624746322631836,8.999999999999999e-08,0.0,0.0,0.0,8.999999999999999e-08,0.0,0.0,0.0,8.999999999999999e-08
1676469259.6204355,7120,1676469259,613524032,base_link,0.012857725904328349,0.09673474337666951,0.014073759948454823,-0.9951276386104756,1.0,0.0,0.0,0.0,1.0,0.0,0.0,0.0,1.0,0.0005799259524792433,0.0006310812896117568,-0.00014160331920720645,1.2184696791468346e-07,0.0,0.0,0.0,1.2184696791468346e-07,0.0,0.0,0.0,1.2184696791468346e-07,1.8712753057479858,-0.21501956880092504,9.606819152832031,8.999999999999999e-08,0.0,0.0,0.0,8.999999999999999e-08,0.0,0.0,0.0,8.999999999999999e-08
1676469259.642504,7121,1676469259,638524032,base_link,0.012864614279881845,0.09673222773664902,0.014073464920515245,-0.9951278493447181,1.0,0.0,0.0,0.0,1.0,0.0,0.0,0.0,1.0,-0.003500254824757576,-9.290920570492736e-05,0.0006659756181761622,1.2184696791468346e-07,0.0,0.0,0.0,1.2184696791468346e-07,0.0,0.0,0.0,1.2184696791468346e-07,1.8745492696762085,-0.22205305099487188,9.620763778686523,8.999999999999999e-08,0.0,0.0,0.0,8.999999999999999e-08,0.0,0.0,0.0,8.999999999999999e-08
1676469259.6615984,7122,1676469259,658524032,base_link,0.012862201372804596,0.09672229161711257,0.014068660179785034,-0.9951289451627794,1.0,0.0,0.0,0.0,1.0,0.0,0.0,0.0,1.0,0.0010989487636834383,0.0015233773738145828,-0.0005357443587854507,1.2184696791468346e-07,0.0,0.0,0.0,1.2184696791468346e-07,0.0,0.0,0.0,1.2184696791468346e-07,1.8916001319885254,-0.22787836194038272,9.639246940612793,8.999999999999999e-08,0.0,0.0,0.0,8.999999999999999e-08,0.0,0.0,0.0,8.999999999999999e-08
1676469259.6835814,7123,1676469259,678522496,base_link,0.012860115103803306,0.0967170127243366,0.014068449445542478,-0.9951294087781131,1.0,0.0,0.0,0.0,1.0,0.0,0.0,0.0,1.0,0.002531310310587287,0.0015222218353301287,0.0003734359343070535,1.2184696791468346e-07,0.0,0.0,0.0,1.2184696791468346e-07,0.0,0.0,0.0,1.2184696791468346e-07,1.890533447265625,-0.21242801845073583,9.60351276397705,8.999999999999999e-08,0.0,0.0,0.0,8.999999999999999e-08,0.0,0.0,0.0,8.999999999999999e-08
1676469259.7032423,7124,1676469259,698522496,base_link,0.012864785501453918,0.0967210561876156,0.014071188990695697,-0.9951289451627794,1.0,0.0,0.0,0.0,1.0,0.0,0.0,0.0,1.0,-2.8581824153661728e-05,-0.0007293694652616979,-0.0012299352092668414,1.2184696791468346e-07,0.0,0.0,0.0,1.2184696791468346e-07,0.0,0.0,0.0,1.2184696791468346e-07,1.8897061347961426,-0.25169804692268255,9.626516342163086,8.999999999999999e-08,0.0,0.0,0.0,8.999999999999999e-08,0.0,0.0,0.0,8.999999999999999e-08
1676469259.7215106,7125,1676469259,719522496,base_link,0.01286747499722452,0.09672369826818163,0.01407123113754421,-0.9951286501348399,1.0,0.0,0.0,0.0,1.0,0.0,0.0,0.0,1.0,-0.0013109755236655474,-0.00150675920303911,-0.0010824144119396804,1.2184696791468346e-07,0.0,0.0,0.0,1.2184696791468346e-07,0.0,0.0,0.0,1.2184696791468346e-07,1.8806604146957397,-0.2095538526773441,9.623759269714355,8.999999999999999e-08,0.0,0.0,0.0,8.999999999999999e-08,0.0,0.0,0.0,8.999999999999999e-08
1676469259.7423577,7126,1676469259,738522496,base_link,0.012855323533963228,0.09672482833055733,0.014072158368211454,-0.9951286501348399,1.0,0.0,0.0,0.0,1.0,0.0,0.0,0.0,1.0,0.0011945588048547506,-6.175483576953425e-05,-0.0010656168451532722,1.2184696791468346e-07,0.0,0.0,0.0,1.2184696791468346e-07,0.0,0.0,0.0,1.2184696791468346e-07,1.9121006727218628,-0.22684964537620428,9.63105583190918,8.999999999999999e-08,0.0,0.0,0.0,8.999999999999999e-08,0.0,0.0,0.0,8.999999999999999e-08
1676469259.762877,7127,1676469259,758522496,base_link,0.012848724917993238,0.0967269383071609,0.014074687179122063,-0.9951284815474458,1.0,0.0,0.0,0.0,1.0,0.0,0.0,0.0,1.0,0.003582970006391406,-0.0012656168546527624,0.00018250479479320364,1.2184696791468346e-07,0.0,0.0,0.0,1.2184696791468346e-07,0.0,0.0,0.0,1.2184696791468346e-07,1.8844549655914307,-0.2239051163196552,9.610641479492188,8.999999999999999e-08,0.0,0.0,0.0,8.999999999999999e-08,0.0,0.0,0.0,8.999999999999999e-08
1676469259.7816553,7128,1676469259,778520960,base_link,0.012861988004384015,0.09673420073599494,0.014077005255790174,-0.995127596463627,1.0,0.0,0.0,0.0,1.0,0.0,0.0,0.0,1.0,-0.0007869440596550703,-0.002104351297020912,-0.0006499719456769524,1.2184696791468346e-07,0.0,0.0,0.0,1.2184696791468346e-07,0.0,0.0,0.0,1.2184696791468346e-07,1.8897943496704102,-0.21586272120475652,9.596875190734863,8.999999999999999e-08,0.0,0.0,0.0,8.999999999999999e-08,0.0,0.0,0.0,8.999999999999999e-08
1676469259.8036988,7129,1676469259,798520960,base_link,0.01286743285037601,0.09673465644879446,0.014081009206398725,-0.9951274700230816,1.0,0.0,0.0,0.0,1.0,0.0,0.0,0.0,1.0,0.0017193940002471209,0.0015032009687274694,-0.00040525337681174295,1.2184696791468346e-07,0.0,0.0,0.0,1.2184696791468346e-07,0.0,0.0,0.0,1.2184696791468346e-07,1.8961007595062256,-0.2345286309719074,9.624422073364258,8.999999999999999e-08,0.0,0.0,0.0,8.999999999999999e-08,0.0,0.0,0.0,8.999999999999999e-08
1676469259.8220537,7130,1676469259,818520960,base_link,0.012870369958881614,0.09673902128179337,0.014082484346096614,-0.9951270064077479,1.0,0.0,0.0,0.0,1.0,0.0,0.0,0.0,1.0,-0.0003705273848026991,0.0011467726435512302,-0.0022338135167956352,1.2184696791468346e-07,0.0,0.0,0.0,1.2184696791468346e-07,0.0,0.0,0.0,1.2184696791468346e-07,1.876281499862671,-0.22859820723533514,9.62149429321289,8.999999999999999e-08,0.0,0.0,0.0,8.999999999999999e-08,0.0,0.0,0.0,8.999999999999999e-08
1676469259.8431795,7131,1676469259,838520960,base_link,0.012871629095980877,0.09673747765346666,0.014078606836033597,-0.9951271749951419,1.0,0.0,0.0,0.0,1.0,0.0,0.0,0.0,1.0,0.0027379945386201143,0.002161166165024042,-0.0007032076828181746,1.2184696791468346e-07,0.0,0.0,0.0,1.2184696791468346e-07,0.0,0.0,0.0,1.2184696791468346e-07,1.8965157270431519,-0.22346517443656805,9.624670028686523,8.999999999999999e-08,0.0,0.0,0.0,8.999999999999999e-08,0.0,0.0,0.0,8.999999999999999e-08
1676469259.86155,7132,1676469259,858520960,base_link,0.01287083620839327,0.09673748028764469,0.014079955535185951,-0.9951271749951419,1.0,0.0,0.0,0.0,1.0,0.0,0.0,0.0,1.0,0.0022158597130328417,-0.0010610901517793536,-0.00019818599685095237,1.2184696791468346e-07,0.0,0.0,0.0,1.2184696791468346e-07,0.0,0.0,0.0,1.2184696791468346e-07,1.9077905416488647,-0.24081239104270818,9.611592292785645,8.999999999999999e-08,0.0,0.0,0.0,8.999999999999999e-08,0.0,0.0,0.0,8.999999999999999e-08
1676469259.8847508,7133,1676469259,878519424,base_link,0.012875314311047548,0.09672490999007632,0.014076035878274417,-0.9951283972537488,1.0,0.0,0.0,0.0,1.0,0.0,0.0,0.0,1.0,-0.003015157300978899,7.747509516775634e-05,0.0021332241594791412,1.2184696791468346e-07,0.0,0.0,0.0,1.2184696791468346e-07,0.0,0.0,0.0,1.2184696791468346e-07,1.9006801843643188,-0.2227359563112247,9.634374618530273,8.999999999999999e-08,0.0,0.0,0.0,8.999999999999999e-08,0.0,0.0,0.0,8.999999999999999e-08
1676469259.9024646,7134,1676469259,898519424,base_link,0.012875035088176166,0.09672950926492006,0.01407966050724637,-0.9951278914915666,1.0,0.0,0.0,0.0,1.0,0.0,0.0,0.0,1.0,-0.0010706954635679722,-0.0005558799603022635,-0.00028288154862821097,1.2184696791468346e-07,0.0,0.0,0.0,1.2184696791468346e-07,0.0,0.0,0.0,1.2184696791468346e-07,1.9073808193206787,-0.21808651089668157,9.614912033081055,8.999999999999999e-08,0.0,0.0,0.0,8.999999999999999e-08,0.0,0.0,0.0,8.999999999999999e-08
1676469259.9222922,7135,1676469259,918519424,base_link,0.01286310489586955,0.09672524453068637,0.014074897913364618,-0.9951285236942943,1.0,0.0,0.0,0.0,1.0,0.0,0.0,0.0,1.0,0.003147060750052333,-0.0004116109339520334,0.0010528013808652759,1.2184696791468346e-07,0.0,0.0,0.0,1.2184696791468346e-07,0.0,0.0,0.0,1.2184696791468346e-07,1.8908970355987549,-0.23706409335136297,9.625205993652344,8.999999999999999e-08,0.0,0.0,0.0,8.999999999999999e-08,0.0,0.0,0.0,8.999999999999999e-08
1676469259.941454,7136,1676469259,938519424,base_link,0.012864598474813652,0.09671942036305778,0.014078311808094011,-0.9951289873096278,1.0,0.0,0.0,0.0,1.0,0.0,0.0,0.0,1.0,0.001359384274110198,0.0008350030984729526,-0.0014201615704223514,1.2184696791468346e-07,0.0,0.0,0.0,1.2184696791468346e-07,0.0,0.0,0.0,1.2184696791468346e-07,1.888672113418579,-0.23737898468971136,9.620832443237305,8.999999999999999e-08,0.0,0.0,0.0,8.999999999999999e-08,0.0,0.0,0.0,8.999999999999999e-08
1676469259.9624107,7137,1676469259,958519424,base_link,0.012862182933558376,0.09671947568079645,0.014086024681371536,-0.9951289451627794,1.0,0.0,0.0,0.0,1.0,0.0,0.0,0.0,1.0,-0.002056476194411516,-0.0012997048906981945,-2.1425512386485775e-05,1.2184696791468346e-07,0.0,0.0,0.0,1.2184696791468346e-07,0.0,0.0,0.0,1.2184696791468346e-07,1.9080027341842651,-0.2342866659164417,9.621733665466309,8.999999999999999e-08,0.0,0.0,0.0,8.999999999999999e-08,0.0,0.0,0.0,8.999999999999999e-08
1676469259.9848552,7138,1676469259,978517888,base_link,0.012852275789980284,0.09671546382765381,0.01408846919858512,-0.9951293666312645,1.0,0.0,0.0,0.0,1.0,0.0,0.0,0.0,1.0,-0.0007166028954088688,0.001285690814256668,0.0003199445491190998,1.2184696791468346e-07,0.0,0.0,0.0,1.2184696791468346e-07,0.0,0.0,0.0,1.2184696791468346e-07,1.8916471004486084,-0.2262505292892444,9.643239974975586,8.999999999999999e-08,0.0,0.0,0.0,8.999999999999999e-08,0.0,0.0,0.0,8.999999999999999e-08
1676469260.0014212,7139,1676469259,998517888,base_link,0.012845727223392901,0.09670709240986833,0.014089607163494916,-0.9951302517150832,1.0,0.0,0.0,0.0,1.0,0.0,0.0,0.0,1.0,0.0020006701815873384,0.0016492530703544617,0.00013373667025007289,1.2184696791468346e-07,0.0,0.0,0.0,1.2184696791468346e-07,0.0,0.0,0.0,1.2184696791468346e-07,1.9082709550857544,-0.226266101002692,9.631789207458496,8.999999999999999e-08,0.0,0.0,0.0,8.999999999999999e-08,0.0,0.0,0.0,8.999999999999999e-08
1676469260.0216894,7140,1676469260,18517888,base_link,0.012845887908252848,0.09670700548199328,0.014092262414951113,-0.9951302095682347,1.0,0.0,0.0,0.0,1.0,0.0,0.0,0.0,1.0,0.0019898677710443735,0.00012123910710215548,-0.0016491163987666368,1.2184696791468346e-07,0.0,0.0,0.0,1.2184696791468346e-07,0.0,0.0,0.0,1.2184696791468346e-07,1.8743852376937866,-0.23629775643348577,9.625805854797363,8.999999999999999e-08,0.0,0.0,0.0,8.999999999999999e-08,0.0,0.0,0.0,8.999999999999999e-08
1676469260.043103,7141,1676469260,38517888,base_link,0.012849736442357498,0.09670650762234526,0.014093442526709422,-0.9951302095682347,1.0,0.0,0.0,0.0,1.0,0.0,0.0,0.0,1.0,-0.0023288140073418617,-0.00011397874914109715,-0.0006516058929264545,1.2184696791468346e-07,0.0,0.0,0.0,1.2184696791468346e-07,0.0,0.0,0.0,1.2184696791468346e-07,1.8832275867462158,-0.2478197515010822,9.601750373840332,8.999999999999999e-08,0.0,0.0,0.0,8.999999999999999e-08,0.0,0.0,0.0,8.999999999999999e-08
1676469260.0615983,7142,1676469260,58517888,base_link,0.012848066373485257,0.09670309899597193,0.014088806373373204,-0.9951306310367198,1.0,0.0,0.0,0.0,1.0,0.0,0.0,0.0,1.0,-0.001806803746148944,-0.0008753305883146822,-0.00012760341633111228,1.2184696791468346e-07,0.0,0.0,0.0,1.2184696791468346e-07,0.0,0.0,0.0,1.2184696791468346e-07,1.8809009790420532,-0.24584177136421087,9.604169845581055,8.999999999999999e-08,0.0,0.0,0.0,8.999999999999999e-08,0.0,0.0,0.0,8.999999999999999e-08
1676469260.0821753,7143,1676469260,78516096,base_link,0.012848227058345206,0.09670151585497473,0.01408914354816129,-0.9951307996241139,1.0,0.0,0.0,0.0,1.0,0.0,0.0,0.0,1.0,0.0013940057251602411,-4.456413444131621e-05,-0.0006760534597560763,1.2184696791468346e-07,0.0,0.0,0.0,1.2184696791468346e-07,0.0,0.0,0.0,1.2184696791468346e-07,1.8918755054473877,-0.21761871874332311,9.613016128540039,8.999999999999999e-08,0.0,0.0,0.0,8.999999999999999e-08,0.0,0.0,0.0,8.999999999999999e-08
1676469260.1028256,7144,1676469260,98516096,base_link,0.01284944931695202,0.09669483557948576,0.014092894617678774,-0.9951313475331445,1.0,0.0,0.0,0.0,1.0,0.0,0.0,0.0,1.0,0.0008624454494565725,-0.0003735559294000269,-0.0008439198136329651,1.2184696791468346e-07,0.0,0.0,0.0,1.2184696791468346e-07,0.0,0.0,0.0,1.2184696791468346e-07,1.8738164901733398,-0.24953234195709112,9.615981101989746,8.999999999999999e-08,0.0,0.0,0.0,8.999999999999999e-08,0.0,0.0,0.0,8.999999999999999e-08
1676469260.1206336,7145,1676469260,118516096,base_link,0.012861703513156561,0.09669787015257855,0.01408952286979789,-0.9951310103583564,1.0,0.0,0.0,0.0,1.0,0.0,0.0,0.0,1.0,-0.0012219888158142567,-0.0013266897294670343,0.0008466619765385986,1.2184696791468346e-07,0.0,0.0,0.0,1.2184696791468346e-07,0.0,0.0,0.0,1.2184696791468346e-07,1.8845851421356201,-0.22064264118671298,9.634478569030762,8.999999999999999e-08,0.0,0.0,0.0,8.999999999999999e-08,0.0,0.0,0.0,8.999999999999999e-08
1676469260.1417086,7146,1676469260,138516096,base_link,0.012857080530710528,0.09669505421626241,0.014095254841195393,-0.9951312632394474,1.0,0.0,0.0,0.0,1.0,0.0,0.0,0.0,1.0,-0.00057957973331213,0.0011160795111209154,0.0003171537246089427,1.2184696791468346e-07,0.0,0.0,0.0,1.2184696791468346e-07,0.0,0.0,0.0,1.2184696791468346e-07,1.900724172592163,-0.2324561178684223,9.627825736999512,8.999999999999999e-08,0.0,0.0,0.0,8.999999999999999e-08,0.0,0.0,0.0,8.999999999999999e-08
1676469260.1626039,7147,1676469260,158516096,base_link,0.012848669600254572,0.09668929326890659,0.014092515296042172,-0.9951318954421752,1.0,0.0,0.0,0.0,1.0,0.0,0.0,0.0,1.0,0.0008817126508802176,0.0011869126465171576,-0.0007177757215686144,1.2184696791468346e-07,0.0,0.0,0.0,1.2184696791468346e-07,0.0,0.0,0.0,1.2184696791468346e-07,1.8998174667358398,-0.21583646535873297,9.626093864440918,8.999999999999999e-08,0.0,0.0,0.0,8.999999999999999e-08,0.0,0.0,0.0,8.999999999999999e-08
1676469260.1809156,7148,1676469260,178514816,base_link,0.012845095020665236,0.09669855767304489,0.014096139925014127,-0.995131052505205,1.0,0.0,0.0,0.0,1.0,0.0,0.0,0.0,1.0,0.004075857810676098,-0.0008445816347375511,0.000578398583456874,1.2184696791468346e-07,0.0,0.0,0.0,1.2184696791468346e-07,0.0,0.0,0.0,1.2184696791468346e-07,1.8755137920379639,-0.23503103852271917,9.622940063476562,8.999999999999999e-08,0.0,0.0,0.0,8.999999999999999e-08,0.0,0.0,0.0,8.999999999999999e-08
1676469260.2018616,7149,1676469260,198514816,base_link,0.012853318924480927,0.09669967983288648,0.014096940715135838,-0.9951308417709623,1.0,0.0,0.0,0.0,1.0,0.0,0.0,0.0,1.0,-0.0030296233016997576,-0.0011488177115097642,-0.00048433174379169925,1.2184696791468346e-07,0.0,0.0,0.0,1.2184696791468346e-07,0.0,0.0,0.0,1.2184696791468346e-07,1.9011383056640625,-0.2407680451869953,9.627449035644531,8.999999999999999e-08,0.0,0.0,0.0,8.999999999999999e-08,0.0,0.0,0.0,8.999999999999999e-08
1676469260.2230973,7150,1676469260,218514816,base_link,0.012850497719808729,0.0966973801954646,0.014095971337620082,-0.995131052505205,1.0,0.0,0.0,0.0,1.0,0.0,0.0,0.0,1.0,0.003531416179612279,0.0004553189501166345,0.0009015572723001241,1.2184696791468346e-07,0.0,0.0,0.0,1.2184696791468346e-07,0.0,0.0,0.0,1.2184696791468346e-07,1.8965035676956177,-0.23450332880020022,9.638487815856934,8.999999999999999e-08,0.0,0.0,0.0,8.999999999999999e-08,0.0,0.0,0.0,8.999999999999999e-08
1676469260.2410989,7151,1676469260,238514816,base_link,0.012839125973244886,0.09669534924420199,0.014098205120591168,-0.9951313475331446,1.0,0.0,0.0,0.0,1.0,0.0,0.0,0.0,1.0,0.002610043389722705,0.0015650636050850153,-0.0004512383311521264,1.2184696791468346e-07,0.0,0.0,0.0,1.2184696791468346e-07,0.0,0.0,0.0,1.2184696791468346e-07,1.9152617454528809,-0.23809811472892645,9.628474235534668,8.999999999999999e-08,0.0,0.0,0.0,8.999999999999999e-08,0.0,0.0,0.0,8.999999999999999e-08
1676469260.2624342,7152,1676469260,258514816,base_link,0.012838517478119508,0.09669736965875247,0.014103389182957973,-0.995131136798902,1.0,0.0,0.0,0.0,1.0,0.0,0.0,0.0,1.0,0.0010607114527374506,-0.00040322332642972464,0.00033263748628087347,1.2184696791468346e-07,0.0,0.0,0.0,1.2184696791468346e-07,0.0,0.0,0.0,1.2184696791468346e-07,1.884948968887329,-0.22457683086395144,9.636331558227539,8.999999999999999e-08,0.0,0.0,0.0,8.999999999999999e-08,0.0,0.0,0.0,8.999999999999999e-08
1676469260.2807617,7153,1676469260,278513536,base_link,0.012842247474212722,0.0966968428231461,0.014104569294716283,-0.995131136798902,1.0,0.0,0.0,0.0,1.0,0.0,0.0,0.0,1.0,0.0005864850245416164,-0.0012820347910746932,0.00032785584335215406,1.2184696791468346e-07,0.0,0.0,0.0,1.2184696791468346e-07,0.0,0.0,0.0,1.2184696791468346e-07,1.9040653705596924,-0.20052410662174108,9.60623550415039,8.999999999999999e-08,0.0,0.0,0.0,8.999999999999999e-08,0.0,0.0,0.0,8.999999999999999e-08
1676469260.3026133,7154,1676469260,298513536,base_link,0.012847149679530146,0.09669764097908977,0.014110132678719743,-0.9951308839178109,1.0,0.0,0.0,0.0,1.0,0.0,0.0,0.0,1.0,-0.0028944287914782763,-0.0018300923984497786,0.000446025427663699,1.2184696791468346e-07,0.0,0.0,0.0,1.2184696791468346e-07,0.0,0.0,0.0,1.2184696791468346e-07,1.8955498933792114,-0.23995563387870672,9.600898742675781,8.999999999999999e-08,0.0,0.0,0.0,8.999999999999999e-08,0.0,0.0,0.0,8.999999999999999e-08
1676469260.3229163,7155,1676469260,318513536,base_link,0.012840148034321269,0.09669646613568753,0.014112956517569985,-0.9951310946520535,1.0,0.0,0.0,0.0,1.0,0.0,0.0,0.0,1.0,0.002087507164105773,-0.0004511767183430493,-4.293880192562932e-05,1.2184696791468346e-07,0.0,0.0,0.0,1.2184696791468346e-07,0.0,0.0,0.0,1.2184696791468346e-07,1.8765711784362793,-0.21478678286075475,9.617204666137695,8.999999999999999e-08,0.0,0.0,0.0,8.999999999999999e-08,0.0,0.0,0.0,8.999999999999999e-08
1676469260.3409534,7156,1676469260,338513536,base_link,0.012834811189628583,0.09669610261911912,0.014107140252475456,-0.9951312632394474,1.0,0.0,0.0,0.0,1.0,0.0,0.0,0.0,1.0,0.002139084739610553,0.0007182861445471644,-0.0002626794739626349,1.2184696791468346e-07,0.0,0.0,0.0,1.2184696791468346e-07,0.0,0.0,0.0,1.2184696791468346e-07,1.885960340499878,-0.221752420067786,9.595328330993652,8.999999999999999e-08,0.0,0.0,0.0,8.999999999999999e-08,0.0,0.0,0.0,8.999999999999999e-08
1676469260.3626857,7157,1676469260,358513536,base_link,0.012835609345572254,0.09669618954699417,0.01411156567156912,-0.995131136798902,1.0,0.0,0.0,0.0,1.0,0.0,0.0,0.0,1.0,-0.000343492953106761,0.00012816768139600762,0.0005875354399904609,1.2184696791468346e-07,0.0,0.0,0.0,1.2184696791468346e-07,0.0,0.0,0.0,1.2184696791468346e-07,1.8835461139678955,-0.21369192004203677,9.646818161010742,8.999999999999999e-08,0.0,0.0,0.0,8.999999999999999e-08,0.0,0.0,0.0,8.999999999999999e-08
1676469260.3818078,7158,1676469260,378512256,base_link,0.012836241548299918,0.09669361858923502,0.014116960468178534,-0.995131305386296,1.0,0.0,0.0,0.0,1.0,0.0,0.0,0.0,1.0,-0.0013724456075578928,-0.00010929745621979247,-0.0008905521826818585,1.2184696791468346e-07,0.0,0.0,0.0,1.2184696791468346e-07,0.0,0.0,0.0,1.2184696791468346e-07,1.899348258972168,-0.21285830438136938,9.62923812866211,8.999999999999999e-08,0.0,0.0,0.0,8.999999999999999e-08,0.0,0.0,0.0,8.999999999999999e-08
1676469260.401979,7159,1676469260,398512256,base_link,0.01283345722212017,0.09669028108566856,0.014115401034783624,-0.9951316847079327,1.0,0.0,0.0,0.0,1.0,0.0,0.0,0.0,1.0,0.0005962299183011055,0.0009440884459763764,-0.0006905577611178161,1.2184696791468346e-07,0.0,0.0,0.0,1.2184696791468346e-07,0.0,0.0,0.0,1.2184696791468346e-07,1.9242963790893555,-0.2242725491523731,9.628482818603516,8.999999999999999e-08,0.0,0.0,0.0,8.999999999999999e-08,0.0,0.0,0.0,8.999999999999999e-08
1676469260.4230847,7160,1676469260,418512256,base_link,0.012839004801055414,0.09668762056585631,0.014120458656604894,-0.9951317690016296,1.0,0.0,0.0,0.0,1.0,0.0,0.0,0.0,1.0,-0.0020916075445711613,-0.0002372332965023816,-0.0003145990194752812,1.2184696791468346e-07,0.0,0.0,0.0,1.2184696791468346e-07,0.0,0.0,0.0,1.2184696791468346e-07,1.8825596570968628,-0.21006427705287814,9.637687683105469,8.999999999999999e-08,0.0,0.0,0.0,8.999999999999999e-08,0.0,0.0,0.0,8.999999999999999e-08
1676469260.4408462,7161,1676469260,438512256,base_link,0.012841064728276386,0.09669304170424602,0.014122650292727471,-0.9951312632394474,1.0,0.0,0.0,0.0,1.0,0.0,0.0,0.0,1.0,0.00016962410882115364,-0.0008798094349913301,-0.0013717688852921128,1.2184696791468346e-07,0.0,0.0,0.0,1.2184696791468346e-07,0.0,0.0,0.0,1.2184696791468346e-07,1.8822897672653198,-0.20019704103469732,9.627935409545898,8.999999999999999e-08,0.0,0.0,0.0,8.999999999999999e-08,0.0,0.0,0.0,8.999999999999999e-08
1676469260.4624224,7162,1676469260,458512256,base_link,0.012846206643794714,0.09669856294140095,0.0141296045227318,-0.9951305467430228,1.0,0.0,0.0,0.0,1.0,0.0,0.0,0.0,1.0,-0.00280279153957963,-0.00040787219768390065,-0.00047260810970328743,1.2184696791468346e-07,0.0,0.0,0.0,1.2184696791468346e-07,0.0,0.0,0.0,1.2184696791468346e-07,1.8899949789047241,-0.219511106610297,9.624616622924805,8.999999999999999e-08,0.0,0.0,0.0,8.999999999999999e-08,0.0,0.0,0.0,8.999999999999999e-08
1676469260.486909,7163,1676469260,478510976,base_link,0.012841636344909311,0.09669180627474903,0.014131627571460272,-0.995131221092599,1.0,0.0,0.0,0.0,1.0,0.0,0.0,0.0,1.0,0.0009038911666721106,-0.0001166079891845585,-0.0008858069777488708,1.2184696791468346e-07,0.0,0.0,0.0,1.2184696791468346e-07,0.0,0.0,0.0,1.2184696791468346e-07,1.8962661027908325,-0.22620092332363012,9.622429847717285,8.999999999999999e-08,0.0,0.0,0.0,8.999999999999999e-08,0.0,0.0,0.0,8.999999999999999e-08
1676469260.5012918,7164,1676469260,498510976,base_link,0.012836929068766255,0.09669766205251402,0.014133819207582849,-0.9951306310367198,1.0,0.0,0.0,0.0,1.0,0.0,0.0,0.0,1.0,0.0027560435701161623,6.572948768734921e-05,-0.0009072127286344767,1.2184696791468346e-07,0.0,0.0,0.0,1.2184696791468346e-07,0.0,0.0,0.0,1.2184696791468346e-07,1.8969851732254028,-0.2078584432601917,9.620501518249512,8.999999999999999e-08,0.0,0.0,0.0,8.999999999999999e-08,0.0,0.0,0.0,8.999999999999999e-08
1676469260.5226545,7165,1676469260,518510976,base_link,0.01284616186276817,0.0966997562240494,0.014141574227708887,-0.9951302095682347,1.0,0.0,0.0,0.0,1.0,0.0,0.0,0.0,1.0,-0.0003973816055804491,0.00026320188771933333,0.0014077515807002783,1.2184696791468346e-07,0.0,0.0,0.0,1.2184696791468346e-07,0.0,0.0,0.0,1.2184696791468346e-07,1.8899242877960205,-0.20651605725288275,9.619197845458984,8.999999999999999e-08,0.0,0.0,0.0,8.999999999999999e-08,0.0,0.0,0.0,8.999999999999999e-08
1676469260.544621,7166,1676469260,538510976,base_link,0.012841905031068574,0.0966980387399726,0.01414098417182973,-0.9951304624493258,1.0,0.0,0.0,0.0,1.0,0.0,0.0,0.0,1.0,0.0005052222404628992,0.00013384572230279448,0.00015101433382369575,1.2184696791468346e-07,0.0,0.0,0.0,1.2184696791468346e-07,0.0,0.0,0.0,1.2184696791468346e-07,1.8980618715286255,-0.22340968251228216,9.619720458984375,8.999999999999999e-08,0.0,0.0,0.0,8.999999999999999e-08,0.0,0.0,0.0,8.999999999999999e-08
1676469260.5615551,7167,1676469260,558510976,base_link,0.012840221791306169,0.09669247272179111,0.014142290724133571,-0.9951310103583565,1.0,0.0,0.0,0.0,1.0,0.0,0.0,0.0,1.0,0.0002792745362967253,0.0005551077192649249,0.0022611282765865326,1.2184696791468346e-07,0.0,0.0,0.0,1.2184696791468346e-07,0.0,0.0,0.0,1.2184696791468346e-07,1.8944867849349976,-0.21483458578586462,9.624594688415527,8.999999999999999e-08,0.0,0.0,0.0,8.999999999999999e-08,0.0,0.0,0.0,8.999999999999999e-08
1676469260.5826132,7168,1676469260,578509696,base_link,0.01283821718182387,0.09668927219548233,0.014140351969102061,-0.9951313475331446,1.0,0.0,0.0,0.0,1.0,0.0,0.0,0.0,1.0,0.0013398609589785337,0.0016601679380983114,0.0007941093062981961,1.2184696791468346e-07,0.0,0.0,0.0,1.2184696791468346e-07,0.0,0.0,0.0,1.2184696791468346e-07,1.8905482292175293,-0.22109718620777014,9.608152389526367,8.999999999999999e-08,0.0,0.0,0.0,8.999999999999999e-08,0.0,0.0,0.0,8.999999999999999e-08
1676469260.6028569,7169,1676469260,597509696,base_link,0.012844876383888587,0.09668856623576977,0.01414347083589188,-0.9951313475331446,1.0,0.0,0.0,0.0,1.0,0.0,0.0,0.0,1.0,8.939346298575401e-05,0.0016380797605961561,-0.00044044328387826703,1.2184696791468346e-07,0.0,0.0,0.0,1.2184696791468346e-07,0.0,0.0,0.0,1.2184696791468346e-07,1.898440957069397,-0.24536210298538091,9.606609344482422,8.999999999999999e-08,0.0,0.0,0.0,8.999999999999999e-08,0.0,0.0,0.0,8.999999999999999e-08
1676469260.621396,7170,1676469260,617509696,base_link,0.012843227388440598,0.09668641147813965,0.014142459311527612,-0.9951316004142357,1.0,0.0,0.0,0.0,1.0,0.0,0.0,0.0,1.0,-0.0012897890992462635,0.00021201348863542093,0.0011310232803225517,1.2184696791468346e-07,0.0,0.0,0.0,1.2184696791468346e-07,0.0,0.0,0.0,1.2184696791468346e-07,1.9013503789901733,-0.2019557207822788,9.61867618560791,8.999999999999999e-08,0.0,0.0,0.0,8.999999999999999e-08,0.0,0.0,0.0,8.999999999999999e-08
1676469260.6421072,7171,1676469260,637509696,base_link,0.0128424766477015,0.09668451750413469,0.014142417164679101,-0.9951317268547811,1.0,0.0,0.0,0.0,1.0,0.0,0.0,0.0,1.0,-0.001511183101683855,0.0005303408252075315,-0.0003895768895745278,1.2184696791468346e-07,0.0,0.0,0.0,1.2184696791468346e-07,0.0,0.0,0.0,1.2184696791468346e-07,1.884958267211914,-0.2105846852064121,9.619112968444824,8.999999999999999e-08,0.0,0.0,0.0,8.999999999999999e-08,0.0,0.0,0.0,8.999999999999999e-08
1676469260.6609135,7172,1676469260,657509696,base_link,0.012844207302668475,0.09668204927931877,0.014142332870982079,-0.9951319797358722,1.0,0.0,0.0,0.0,1.0,0.0,0.0,0.0,1.0,0.003885543206706643,0.0017509490717202427,0.0008891531033441422,1.2184696791468346e-07,0.0,0.0,0.0,1.2184696791468346e-07,0.0,0.0,0.0,1.2184696791468346e-07,1.889754295349121,-0.217611253261565,9.622714042663574,8.999999999999999e-08,0.0,0.0,0.0,8.999999999999999e-08,0.0,0.0,0.0,8.999999999999999e-08
1676469260.6813376,7173,1676469260,677508416,base_link,0.012853548097969703,0.09668343485696357,0.014136600899584574,-0.9951318111484782,1.0,0.0,0.0,0.0,1.0,0.0,0.0,0.0,1.0,-0.00010772701352834702,-0.0007893004221841694,-0.0005860220990143715,1.2184696791468346e-07,0.0,0.0,0.0,1.2184696791468346e-07,0.0,0.0,0.0,1.2184696791468346e-07,1.8764097690582275,-0.2130151987075794,9.623215675354004,8.999999999999999e-08,0.0,0.0,0.0,8.999999999999999e-08,0.0,0.0,0.0,8.999999999999999e-08
1676469260.7016432,7174,1676469260,697508416,base_link,0.012852660379972946,0.09668326890374755,0.014137359542857773,-0.9951318111484782,1.0,0.0,0.0,0.0,1.0,0.0,0.0,0.0,1.0,-0.0018973747501149774,-0.0004726918414235116,-0.0008123141014948486,1.2184696791468346e-07,0.0,0.0,0.0,1.2184696791468346e-07,0.0,0.0,0.0,1.2184696791468346e-07,1.8886481523513794,-0.25767922401428106,9.616278648376465,8.999999999999999e-08,0.0,0.0,0.0,8.999999999999999e-08,0.0,0.0,0.0,8.999999999999999e-08
1676469260.7206519,7175,1676469260,717508416,base_link,0.012849280729557976,0.09668243386931143,0.014135125759886687,-0.9951320218827207,1.0,0.0,0.0,0.0,1.0,0.0,0.0,0.0,1.0,0.00034948368556797504,0.001836315030232072,0.0019341055303812025,1.2184696791468346e-07,0.0,0.0,0.0,1.2184696791468346e-07,0.0,0.0,0.0,1.2184696791468346e-07,1.9014941453933716,-0.22589150071143987,9.626255989074707,8.999999999999999e-08,0.0,0.0,0.0,8.999999999999999e-08,0.0,0.0,0.0,8.999999999999999e-08
1676469260.7415664,7176,1676469260,738508416,base_link,0.012845237266278963,0.09668337953922489,0.014131922599399846,-0.9951320218827207,1.0,0.0,0.0,0.0,1.0,0.0,0.0,0.0,1.0,0.0014960609842091799,-0.0006862714653834703,-0.001581650460138917,1.2184696791468346e-07,0.0,0.0,0.0,1.2184696791468346e-07,0.0,0.0,0.0,1.2184696791468346e-07,1.898270606994629,-0.23460847139358404,9.62298583984375,8.999999999999999e-08,0.0,0.0,0.0,8.999999999999999e-08,0.0,0.0,0.0,8.999999999999999e-08
1676469260.7619197,7177,1676469260,757508416,base_link,0.012854709770481787,0.0966863087451964,0.01413988835376844,-0.9951314739736901,1.0,0.0,0.0,0.0,1.0,0.0,0.0,0.0,1.0,0.0020876468624919653,-0.00019471714040264504,-0.0013071679277345538,1.2184696791468346e-07,0.0,0.0,0.0,1.2184696791468346e-07,0.0,0.0,0.0,1.2184696791468346e-07,1.907221794128418,-0.2104984372854221,9.620583534240723,8.999999999999999e-08,0.0,0.0,0.0,8.999999999999999e-08,0.0,0.0,0.0,8.999999999999999e-08
1676469260.7845345,7178,1676469260,777506880,base_link,0.012860973845841717,0.09668509175494565,0.014142164283588035,-0.9951314739736901,1.0,0.0,0.0,0.0,1.0,0.0,0.0,0.0,1.0,0.002826186129823327,0.0006897319108247757,-0.00024510285584256064,1.2184696791468346e-07,0.0,0.0,0.0,1.2184696791468346e-07,0.0,0.0,0.0,1.2184696791468346e-07,1.8890941143035889,-0.23143300414085272,9.620079040527344,8.999999999999999e-08,0.0,0.0,0.0,8.999999999999999e-08,0.0,0.0,0.0,8.999999999999999e-08
1676469260.8008084,7179,1676469260,797506880,base_link,0.012851662026498843,0.09668238118575079,0.014140183381708015,-0.9951319375890236,1.0,0.0,0.0,0.0,1.0,0.0,0.0,0.0,1.0,-0.0020963605493307114,0.00016388134099543076,-0.0014393511228263378,1.2184696791468346e-07,0.0,0.0,0.0,1.2184696791468346e-07,0.0,0.0,0.0,1.2184696791468346e-07,1.8826148509979248,-0.21812003850936773,9.61653995513916,8.999999999999999e-08,0.0,0.0,0.0,8.999999999999999e-08,0.0,0.0,0.0,8.999999999999999e-08
1676469260.8220253,7180,1676469260,817506880,base_link,0.012844918530737097,0.09668111678029546,0.014143091514255277,-0.9951320640295692,1.0,0.0,0.0,0.0,1.0,0.0,0.0,0.0,1.0,0.0025331161450594664,0.0005853443872183561,-1.7494166968390417e-05,1.2184696791468346e-07,0.0,0.0,0.0,1.2184696791468346e-07,0.0,0.0,0.0,1.2184696791468346e-07,1.8919020891189575,-0.21983495354652288,9.620582580566406,8.999999999999999e-08,0.0,0.0,0.0,8.999999999999999e-08,0.0,0.0,0.0,8.999999999999999e-08
1676469260.8427517,7181,1676469260,837506880,base_link,0.012850726893297507,0.09667937558861636,0.014145283150377852,-0.9951321483232662,1.0,0.0,0.0,0.0,1.0,0.0,0.0,0.0,1.0,-0.0027727442793548107,-0.0007180055836215614,0.0008717100135982038,1.2184696791468346e-07,0.0,0.0,0.0,1.2184696791468346e-07,0.0,0.0,0.0,1.2184696791468346e-07,1.8878448009490967,-0.2138188630342472,9.624406814575195,8.999999999999999e-08,0.0,0.0,0.0,8.999999999999999e-08,0.0,0.0,0.0,8.999999999999999e-08
1676469260.861841,7182,1676469260,857506880,base_link,0.012852852674969273,0.09668058994468907,0.014145704618862963,-0.9951319797358722,1.0,0.0,0.0,0.0,1.0,0.0,0.0,0.0,1.0,-0.0016194663476198912,-1.0906136594712716e-05,0.0001581298711244017,1.2184696791468346e-07,0.0,0.0,0.0,1.2184696791468346e-07,0.0,0.0,0.0,1.2184696791468346e-07,1.8999801874160767,-0.23023821413516882,9.619959831237793,8.999999999999999e-08,0.0,0.0,0.0,8.999999999999999e-08,0.0,0.0,0.0,8.999999999999999e-08
1676469260.881703,7183,1676469260,877505600,base_link,0.012849209606751117,0.09667442333391633,0.014145198856680828,-0.9951326540854484,1.0,0.0,0.0,0.0,1.0,0.0,0.0,0.0,1.0,0.00044802017509937286,0.0015169621910899878,-3.7433143006637875e-05,1.2184696791468346e-07,0.0,0.0,0.0,1.2184696791468346e-07,0.0,0.0,0.0,1.2184696791468346e-07,1.9006223678588867,-0.23007594048976782,9.615708351135254,8.999999999999999e-08,0.0,0.0,0.0,8.999999999999999e-08,0.0,0.0,0.0,8.999999999999999e-08
1676469260.9006996,7184,1676469260,897505600,base_link,0.012843066703580654,0.09667029294276226,0.014149202807289322,-0.9951330334070849,1.0,0.0,0.0,0.0,1.0,0.0,0.0,0.0,1.0,0.0031752826180309057,0.001513324910774827,0.000664044404402375,1.2184696791468346e-07,0.0,0.0,0.0,1.2184696791468346e-07,0.0,0.0,0.0,1.2184696791468346e-07,1.909257411956787,-0.2274449616670597,9.62088394165039,8.999999999999999e-08,0.0,0.0,0.0,8.999999999999999e-08,0.0,0.0,0.0,8.999999999999999e-08
1676469260.9226518,7185,1676469260,917505600,base_link,0.012838659723733234,0.0966674822748022,0.014155398394020446,-0.9951333284350246,1.0,0.0,0.0,0.0,1.0,0.0,0.0,0.0,1.0,0.002423527417704463,0.0009697279892861842,-0.0012548915110528471,1.2184696791468346e-07,0.0,0.0,0.0,1.2184696791468346e-07,0.0,0.0,0.0,1.2184696791468346e-07,1.9027934074401855,-0.22446039319038275,9.601004600524902,8.999999999999999e-08,0.0,0.0,0.0,8.999999999999999e-08,0.0,0.0,0.0,8.999999999999999e-08
1676469260.9410324,7186,1676469260,937505600,base_link,0.012841733809496493,0.09666724256460128,0.014155988449899602,-0.9951332441413275,1.0,0.0,0.0,0.0,1.0,0.0,0.0,0.0,1.0,-0.0008762958459556103,-0.0011686076177284122,0.00047522856038995103,1.2184696791468346e-07,0.0,0.0,0.0,1.2184696791468346e-07,0.0,0.0,0.0,1.2184696791468346e-07,1.8796207904815674,-0.22720822691917303,9.616018295288086,8.999999999999999e-08,0.0,0.0,0.0,8.999999999999999e-08,0.0,0.0,0.0,8.999999999999999e-08
1676469260.9624197,7187,1676469260,957505600,base_link,0.012835604077216189,0.09666931566271242,0.01415666279947578,-0.9951331598476305,1.0,0.0,0.0,0.0,1.0,0.0,0.0,0.0,1.0,-0.0006322611588984728,0.00023148336913436649,-0.00017759508045855912,1.2184696791468346e-07,0.0,0.0,0.0,1.2184696791468346e-07,0.0,0.0,0.0,1.2184696791468346e-07,1.8882365226745605,-0.21924650669097784,9.61594295501709,8.999999999999999e-08,0.0,0.0,0.0,8.999999999999999e-08,0.0,0.0,0.0,8.999999999999999e-08
1676469260.9841669,7188,1676469260,977504576,base_link,0.012836020277345239,0.09667360937290446,0.014157758617537068,-0.9951326540854484,1.0,0.0,0.0,0.0,1.0,0.0,0.0,0.0,1.0,-0.002012710552662611,-0.0009627597173675894,0.0011660913005471232,1.2184696791468346e-07,0.0,0.0,0.0,1.2184696791468346e-07,0.0,0.0,0.0,1.2184696791468346e-07,1.910770297050476,-0.21876408159732702,9.607852935791016,8.999999999999999e-08,0.0,0.0,0.0,8.999999999999999e-08,0.0,0.0,0.0,8.999999999999999e-08
1676469261.0006857,7189,1676469260,997504576,base_link,0.012838567527502115,0.09667621457497805,0.014154344722807672,-0.9951324433512058,1.0,0.0,0.0,0.0,1.0,0.0,0.0,0.0,1.0,0.0022941723000258207,0.0016374222468584776,0.0005466886796057222,1.2184696791468346e-07,0.0,0.0,0.0,1.2184696791468346e-07,0.0,0.0,0.0,1.2184696791468346e-07,1.8723933696746826,-0.21791006624698522,9.620219230651855,8.999999999999999e-08,0.0,0.0,0.0,8.999999999999999e-08,0.0,0.0,0.0,8.999999999999999e-08
1676469261.0220544,7190,1676469261,17504576,base_link,0.012842682113587993,0.09667240555354387,0.014159486638326021,-0.9951326962322968,1.0,0.0,0.0,0.0,1.0,0.0,0.0,0.0,1.0,-0.0009219055064022541,0.00039670104160904873,-0.0008329222910106182,1.2184696791468346e-07,0.0,0.0,0.0,1.2184696791468346e-07,0.0,0.0,0.0,1.2184696791468346e-07,1.8931643962860107,-0.20892354846000555,9.604827880859375,8.999999999999999e-08,0.0,0.0,0.0,8.999999999999999e-08,0.0,0.0,0.0,8.999999999999999e-08
1676469261.0428145,7191,1676469261,37504576,base_link,0.012850800650282403,0.09667826923384296,0.01416231047717621,-0.9951319797358722,1.0,0.0,0.0,0.0,1.0,0.0,0.0,0.0,1.0,0.001997797517105937,0.0011360438074916601,0.00033014526707120223,1.2184696791468346e-07,0.0,0.0,0.0,1.2184696791468346e-07,0.0,0.0,0.0,1.2184696791468346e-07,1.9034464359283447,-0.22633405029773596,9.61933708190918,8.999999999999999e-08,0.0,0.0,0.0,8.999999999999999e-08,0.0,0.0,0.0,8.999999999999999e-08
1676469261.0627015,7192,1676469261,57504576,base_link,0.012850958700964317,0.09667408615912824,0.014158896582446867,-0.9951324433512058,1.0,0.0,0.0,0.0,1.0,0.0,0.0,0.0,1.0,0.00012257369235157967,0.0011311480775475504,0.0010468296241015194,1.2184696791468346e-07,0.0,0.0,0.0,1.2184696791468346e-07,0.0,0.0,0.0,1.2184696791468346e-07,1.8997889757156372,-0.2447394430637348,9.61826229095459,8.999999999999999e-08,0.0,0.0,0.0,8.999999999999999e-08,0.0,0.0,0.0,8.999999999999999e-08
1676469261.081861,7193,1676469261,77503552,base_link,0.01285425405768226,0.09667719712338396,0.014159444491477513,-0.9951320640295692,1.0,0.0,0.0,0.0,1.0,0.0,0.0,0.0,1.0,0.0024850054178386927,-0.00015330442693084473,0.00047262708540074527,1.2184696791468346e-07,0.0,0.0,0.0,1.2184696791468346e-07,0.0,0.0,0.0,1.2184696791468346e-07,1.9008461236953735,-0.22839707136154058,9.62880802154541,8.999999999999999e-08,0.0,0.0,0.0,8.999999999999999e-08,0.0,0.0,0.0,8.999999999999999e-08
1676469261.1029904,7194,1676469261,97503552,base_link,0.012861927418289273,0.09667284282709718,0.014154513310201717,-0.9951324433512058,1.0,0.0,0.0,0.0,1.0,0.0,0.0,0.0,1.0,0.002091461094096303,0.001062976894900203,0.0009927926585078237,1.2184696791468346e-07,0.0,0.0,0.0,1.2184696791468346e-07,0.0,0.0,0.0,1.2184696791468346e-07,1.9078471660614014,-0.22863084077834966,9.610284805297852,8.999999999999999e-08,0.0,0.0,0.0,8.999999999999999e-08,0.0,0.0,0.0,8.999999999999999e-08
1676469261.1208375,7195,1676469261,117503552,base_link,0.01286048915708384,0.09666553561723659,0.014150214331653586,-0.995133286288176,1.0,0.0,0.0,0.0,1.0,0.0,0.0,0.0,1.0,-0.0016672747442498803,0.000951932743191719,-0.0007143815746530892,1.2184696791468346e-07,0.0,0.0,0.0,1.2184696791468346e-07,0.0,0.0,0.0,1.2184696791468346e-07,1.8973724842071533,-0.23877319693565252,9.60871696472168,8.999999999999999e-08,0.0,0.0,0.0,8.999999999999999e-08,0.0,0.0,0.0,8.999999999999999e-08
1676469261.142064,7196,1676469261,137503552,base_link,0.012853234630783902,0.09666756393432119,0.01415830652656771,-0.9951330334070849,1.0,0.0,0.0,0.0,1.0,0.0,0.0,0.0,1.0,0.0008735295850783587,-0.0010760240256786349,-0.0014327635290101168,1.2184696791468346e-07,0.0,0.0,0.0,1.2184696791468346e-07,0.0,0.0,0.0,1.2184696791468346e-07,1.88565993309021,-0.22867469489574316,9.594457626342773,8.999999999999999e-08,0.0,0.0,0.0,8.999999999999999e-08,0.0,0.0,0.0,8.999999999999999e-08
1676469261.1627967,7197,1676469261,157503552,base_link,0.012847399926443178,0.09666182932874566,0.014159865959962617,-0.9951336656098126,1.0,0.0,0.0,0.0,1.0,0.0,0.0,0.0,1.0,-0.0016359073342755437,-0.0010878398315981028,0.001052361447364092,1.2184696791468346e-07,0.0,0.0,0.0,1.2184696791468346e-07,0.0,0.0,0.0,1.2184696791468346e-07,1.8887217044830322,-0.22104817628860357,9.621225357055664,8.999999999999999e-08,0.0,0.0,0.0,8.999999999999999e-08,0.0,0.0,0.0,8.999999999999999e-08
1676469261.1807468,7198,1676469261,177502016,base_link,0.012853750929678165,0.0966608836588322,0.014159065169840907,-0.9951337077566611,1.0,0.0,0.0,0.0,1.0,0.0,0.0,0.0,1.0,0.0003000744618475437,-0.00017081020632758745,-0.0007700007408857346,1.2184696791468346e-07,0.0,0.0,0.0,1.2184696791468346e-07,0.0,0.0,0.0,1.2184696791468346e-07,1.8770991563796997,-0.2300335615873325,9.614021301269531,8.999999999999999e-08,0.0,0.0,0.0,8.999999999999999e-08,0.0,0.0,0.0,8.999999999999999e-08
1676469261.2016537,7199,1676469261,197502016,base_link,0.012861363704190446,0.09665369235280503,0.014162015449236679,-0.9951342135188432,1.0,0.0,0.0,0.0,1.0,0.0,0.0,0.0,1.0,-0.0008643358014523983,-0.00014979986008256677,-0.00011579584679566322,1.2184696791468346e-07,0.0,0.0,0.0,1.2184696791468346e-07,0.0,0.0,0.0,1.2184696791468346e-07,1.8774079084396362,-0.21898607909679296,9.617463111877441,8.999999999999999e-08,0.0,0.0,0.0,8.999999999999999e-08,0.0,0.0,0.0,8.999999999999999e-08
1676469261.2235413,7200,1676469261,217502016,base_link,0.012858202690552123,0.09665194325859183,0.01416981261621117,-0.9951343399593887,1.0,0.0,0.0,0.0,1.0,0.0,0.0,0.0,1.0,0.0007748566567897797,-0.0012468775967136025,-0.000179746391950175,1.2184696791468346e-07,0.0,0.0,0.0,1.2184696791468346e-07,0.0,0.0,0.0,1.2184696791468346e-07,1.896522879600525,-0.21767261624336126,9.625350952148438,8.999999999999999e-08,0.0,0.0,0.0,8.999999999999999e-08,0.0,0.0,0.0,8.999999999999999e-08
1676469261.2411687,7201,1676469261,237502016,base_link,0.012849939274065962,0.09665629755487862,0.014170444818938836,-0.9951340449314492,1.0,0.0,0.0,0.0,1.0,0.0,0.0,0.0,1.0,0.002717355964705348,0.0004441540222615004,0.00047334391274489457,1.2184696791468346e-07,0.0,0.0,0.0,1.2184696791468346e-07,0.0,0.0,0.0,1.2184696791468346e-07,1.8909032344818115,-0.22013543546199682,9.625662803649902,8.999999999999999e-08,0.0,0.0,0.0,8.999999999999999e-08,0.0,0.0,0.0,8.999999999999999e-08
1676469261.2617772,7202,1676469261,257502016,base_link,0.012847592221439509,0.0966542507985478,0.014165808665602618,-0.9951342978125403,1.0,0.0,0.0,0.0,1.0,0.0,0.0,0.0,1.0,-0.0003543458878993988,0.0009922378230839968,0.0005904153222218155,1.2184696791468346e-07,0.0,0.0,0.0,1.2184696791468346e-07,0.0,0.0,0.0,1.2184696791468346e-07,1.8991683721542358,-0.2199225872755039,9.629307746887207,8.999999999999999e-08,0.0,0.0,0.0,8.999999999999999e-08,0.0,0.0,0.0,8.999999999999999e-08
1676469261.2840207,7203,1676469261,277500992,base_link,0.012848582672379514,0.0966531444437744,0.014170023350453725,-0.9951342978125403,1.0,0.0,0.0,0.0,1.0,0.0,0.0,0.0,1.0,0.002339476952329278,0.0009727475699037313,0.00020689665689133097,1.2184696791468346e-07,0.0,0.0,0.0,1.2184696791468346e-07,0.0,0.0,0.0,1.2184696791468346e-07,1.9089016914367676,-0.2558219134807575,9.624174118041992,8.999999999999999e-08,0.0,0.0,0.0,8.999999999999999e-08,0.0,0.0,0.0,8.999999999999999e-08
1676469261.301393,7204,1676469261,297500992,base_link,0.012844863212998431,0.09665281780569844,0.014169686175665636,-0.9951343821062373,1.0,0.0,0.0,0.0,1.0,0.0,0.0,0.0,1.0,-2.362765371799469e-06,-0.00028796831611543894,-0.00022101156355347482,1.2184696791468346e-07,0.0,0.0,0.0,1.2184696791468346e-07,0.0,0.0,0.0,1.2184696791468346e-07,1.8976869583129883,-0.22369675338268163,9.614273071289062,8.999999999999999e-08,0.0,0.0,0.0,8.999999999999999e-08,0.0,0.0,0.0,8.999999999999999e-08
1676469261.3217695,7205,1676469261,317500992,base_link,0.012841209608068144,0.09665471177970339,0.014170318378393302,-0.9951342556656917,1.0,0.0,0.0,0.0,1.0,0.0,0.0,0.0,1.0,0.0013117867056280375,0.0010016539599746466,-0.0001923263480421157,1.2184696791468346e-07,0.0,0.0,0.0,1.2184696791468346e-07,0.0,0.0,0.0,1.2184696791468346e-07,1.8853981494903564,-0.2330175638198841,9.628275871276855,8.999999999999999e-08,0.0,0.0,0.0,8.999999999999999e-08,0.0,0.0,0.0,8.999999999999999e-08
1676469261.342818,7206,1676469261,337500992,base_link,0.012842176351405858,0.09665951915461167,0.014178916335489506,-0.9951336656098126,1.0,0.0,0.0,0.0,1.0,0.0,0.0,0.0,1.0,-0.0004926922265440226,1.525401603430491e-05,-0.001519101788289845,1.2184696791468346e-07,0.0,0.0,0.0,1.2184696791468346e-07,0.0,0.0,0.0,1.2184696791468346e-07,1.9078660011291504,-0.22694060206413152,9.59703254699707,8.999999999999999e-08,0.0,0.0,0.0,8.999999999999999e-08,0.0,0.0,0.0,8.999999999999999e-08
1676469261.3609276,7207,1676469261,357500992,base_link,0.012843353828986132,0.0966567506335001,0.014186544915070006,-0.9951337920503581,1.0,0.0,0.0,0.0,1.0,0.0,0.0,0.0,1.0,-0.003516538068652153,-0.00035458098864182835,-0.00025756546529009933,1.2184696791468346e-07,0.0,0.0,0.0,1.2184696791468346e-07,0.0,0.0,0.0,1.2184696791468346e-07,1.9042530059814453,-0.2154812812805164,9.62868881225586,8.999999999999999e-08,0.0,0.0,0.0,8.999999999999999e-08,0.0,0.0,0.0,8.999999999999999e-08
1676469261.3852108,7208,1676469261,377499968,base_link,0.01284010325329473,0.09665499627093084,0.014188610110647048,-0.9951340027846007,1.0,0.0,0.0,0.0,1.0,0.0,0.0,0.0,1.0,0.0021100265439599752,-0.0001610791077837348,4.780438030138614e-05,1.2184696791468346e-07,0.0,0.0,0.0,1.2184696791468346e-07,0.0,0.0,0.0,1.2184696791468346e-07,1.8854488134384155,-0.2141106575727451,9.624052047729492,8.999999999999999e-08,0.0,0.0,0.0,8.999999999999999e-08,0.0,0.0,0.0,8.999999999999999e-08
1676469261.4010518,7209,1676469261,397499968,base_link,0.012834861239011189,0.09665368445027094,0.014186797796161072,-0.9951342135188432,1.0,0.0,0.0,0.0,1.0,0.0,0.0,0.0,1.0,0.002174278488382697,0.0010279123671352863,-0.0001406254596076907,1.2184696791468346e-07,0.0,0.0,0.0,1.2184696791468346e-07,0.0,0.0,0.0,1.2184696791468346e-07,1.8989920616149902,-0.22579976916313055,9.629579544067383,8.999999999999999e-08,0.0,0.0,0.0,8.999999999999999e-08,0.0,0.0,0.0,8.999999999999999e-08
1676469261.4221706,7210,1676469261,417499968,base_link,0.012840356134385798,0.09666063341191918,0.014178832041792483,-0.9951335813161156,1.0,0.0,0.0,0.0,1.0,0.0,0.0,0.0,1.0,-0.0003289175219833851,-0.00040575454477220774,0.000102078338386491,1.2184696791468346e-07,0.0,0.0,0.0,1.2184696791468346e-07,0.0,0.0,0.0,1.2184696791468346e-07,1.891909122467041,-0.2266042083501804,9.62164306640625,8.999999999999999e-08,0.0,0.0,0.0,8.999999999999999e-08,0.0,0.0,0.0,8.999999999999999e-08
1676469261.443105,7211,1676469261,437499968,base_link,0.012840990971291493,0.09665309702856982,0.014185069775372117,-0.9951342556656918,1.0,0.0,0.0,0.0,1.0,0.0,0.0,0.0,1.0,0.0035323642659932375,0.0012161885388195517,0.0013179300585761664,1.2184696791468346e-07,0.0,0.0,0.0,1.2184696791468346e-07,0.0,0.0,0.0,1.2184696791468346e-07,1.875003457069397,-0.23501437902450442,9.632275581359863,8.999999999999999e-08,0.0,0.0,0.0,8.999999999999999e-08,0.0,0.0,0.0,8.999999999999999e-08
1676469261.4621603,7212,1676469261,457499968,base_link,0.012832082181187499,0.09665214345612226,0.014181950908582298,-0.9951345085467829,1.0,0.0,0.0,0.0,1.0,0.0,0.0,0.0,1.0,-0.0015152501873672009,0.001477350015193224,-3.387036849744636e-05,1.2184696791468346e-07,0.0,0.0,0.0,1.2184696791468346e-07,0.0,0.0,0.0,1.2184696791468346e-07,1.8993420600891113,-0.23220369219779852,9.627243995666504,8.999999999999999e-08,0.0,0.0,0.0,8.999999999999999e-08,0.0,0.0,0.0,8.999999999999999e-08
1676469261.4822285,7213,1676469261,477498944,base_link,0.01283265379782043,0.09665248853344444,0.014178916335489502,-0.9951345085467829,1.0,0.0,0.0,0.0,1.0,0.0,0.0,0.0,1.0,-0.00143797870259732,0.0006496531423181295,-0.0003327156882733107,1.2184696791468346e-07,0.0,0.0,0.0,1.2184696791468346e-07,0.0,0.0,0.0,1.2184696791468346e-07,1.898689866065979,-0.23717290163040045,9.609642028808594,8.999999999999999e-08,0.0,0.0,0.0,8.999999999999999e-08,0.0,0.0,0.0,8.999999999999999e-08
1676469261.5040462,7214,1676469261,497498944,base_link,0.01283923924290026,0.09665121359127699,0.014181866614885276,-0.9951345085467829,1.0,0.0,0.0,0.0,1.0,0.0,0.0,0.0,1.0,-0.000990504864603281,0.001649362966418266,-0.0009533186675980689,1.2184696791468346e-07,0.0,0.0,0.0,1.2184696791468346e-07,0.0,0.0,0.0,1.2184696791468346e-07,1.888514757156372,-0.22735273838043096,9.612101554870605,8.999999999999999e-08,0.0,0.0,0.0,8.999999999999999e-08,0.0,0.0,0.0,8.999999999999999e-08
1676469261.5216434,7215,1676469261,517498944,base_link,0.012841275462518936,0.09664596367445935,0.014183973957310827,-0.9951349300152679,1.0,0.0,0.0,0.0,1.0,0.0,0.0,0.0,1.0,0.0005226652137935162,0.0009791147895157337,-0.0005968271289020778,1.2184696791468346e-07,0.0,0.0,0.0,1.2184696791468346e-07,0.0,0.0,0.0,1.2184696791468346e-07,1.875162124633789,-0.2157857418060291,9.626347541809082,8.999999999999999e-08,0.0,0.0,0.0,8.999999999999999e-08,0.0,0.0,0.0,8.999999999999999e-08
1676469261.5430071,7216,1676469261,537498944,base_link,0.012842063081750484,0.09664549215659164,0.014182625258158473,-0.995135014308965,1.0,0.0,0.0,0.0,1.0,0.0,0.0,0.0,1.0,0.0038741722237318754,0.00016881560441106574,0.00127736059948802,1.2184696791468346e-07,0.0,0.0,0.0,1.2184696791468346e-07,0.0,0.0,0.0,1.2184696791468346e-07,1.9107476472854614,-0.24196007847785833,9.622194290161133,8.999999999999999e-08,0.0,0.0,0.0,8.999999999999999e-08,0.0,0.0,0.0,8.999999999999999e-08
1676469261.5614598,7217,1676469261,557498944,base_link,0.01283653921041753,0.0966486979512565,0.014184058251007851,-0.9951347614278738,1.0,0.0,0.0,0.0,1.0,0.0,0.0,0.0,1.0,0.003215925069525838,-4.2242114432156425e-05,-0.0027709617279469967,1.2184696791468346e-07,0.0,0.0,0.0,1.2184696791468346e-07,0.0,0.0,0.0,1.2184696791468346e-07,1.8901636600494385,-0.23221662640571478,9.602580070495605,8.999999999999999e-08,0.0,0.0,0.0,8.999999999999999e-08,0.0,0.0,0.0,8.999999999999999e-08
1676469261.5818617,7218,1676469261,577497920,base_link,0.01284075652944665,0.09664576611110695,0.014188020054767889,-0.995134930015268,1.0,0.0,0.0,0.0,1.0,0.0,0.0,0.0,1.0,-0.0034413672983646393,0.001059818547219038,0.0006793675711378454,1.2184696791468346e-07,0.0,0.0,0.0,1.2184696791468346e-07,0.0,0.0,0.0,1.2184696791468346e-07,1.88462233543396,-0.2384915649890888,9.609776496887207,8.999999999999999e-08,0.0,0.0,0.0,8.999999999999999e-08,0.0,0.0,0.0,8.999999999999999e-08
1676469261.6003742,7219,1676469261,597497920,base_link,0.012844396963486774,0.0966464141189028,0.0141888208448896,-0.9951348035747224,1.0,0.0,0.0,0.0,1.0,0.0,0.0,0.0,1.0,-0.0017418181523680687,0.0003315092762932181,-0.00043765676673501735,1.2184696791468346e-07,0.0,0.0,0.0,1.2184696791468346e-07,0.0,0.0,0.0,1.2184696791468346e-07,1.8865400552749634,-0.2252536863088596,9.629456520080566,8.999999999999999e-08,0.0,0.0,0.0,8.999999999999999e-08,0.0,0.0,0.0,8.999999999999999e-08
1676469261.6219015,7220,1676469261,617497920,base_link,0.012838103912168497,0.09664358237751848,0.014187514292585756,-0.995135182896359,1.0,0.0,0.0,0.0,1.0,0.0,0.0,0.0,1.0,-0.001210121437907219,1.4389632269740025e-05,-0.0006514197448268533,1.2184696791468346e-07,0.0,0.0,0.0,1.2184696791468346e-07,0.0,0.0,0.0,1.2184696791468346e-07,1.9094164371490479,-0.23690938949584844,9.61369800567627,8.999999999999999e-08,0.0,0.0,0.0,8.999999999999999e-08,0.0,0.0,0.0,8.999999999999999e-08
1676469261.6411257,7221,1676469261,637497920,base_link,0.01283323068280942,0.09664535781351201,0.01418764073313129,-0.9951350564558135,1.0,0.0,0.0,0.0,1.0,0.0,0.0,0.0,1.0,0.003660141257569194,0.000616857665590942,0.00044335352140478784,1.2184696791468346e-07,0.0,0.0,0.0,1.2184696791468346e-07,0.0,0.0,0.0,1.2184696791468346e-07,1.8736960887908936,-0.20119938254356268,9.617419242858887,8.999999999999999e-08,0.0,0.0,0.0,8.999999999999999e-08,0.0,0.0,0.0,8.999999999999999e-08
1676469261.6789894,7222,1676469261,672492544,base_link,0.012779741063693034,0.0966308961761167,0.014096434952953674,-0.9951384282036944,1.0,0.0,0.0,0.0,1.0,0.0,0.0,0.0,1.0,-0.012534704990684986,0.04581709578633309,0.049559988081455224,1.2184696791468346e-07,0.0,0.0,0.0,1.2184696791468346e-07,0.0,0.0,0.0,1.2184696791468346e-07,1.8910974264144897,-0.24033817648887518,9.611891746520996,8.999999999999999e-08,0.0,0.0,0.0,8.999999999999999e-08,0.0,0.0,0.0,8.999999999999999e-08
1676469261.6963418,7223,1676469261,692492544,base_link,0.012639737135473943,0.09672933277499193,0.013754539717833355,-0.9951353936306016,1.0,0.0,0.0,0.0,1.0,0.0,0.0,0.0,1.0,-0.0005736956372857094,-0.040779445320367806,0.053611058741807945,1.2184696791468346e-07,0.0,0.0,0.0,1.2184696791468346e-07,0.0,0.0,0.0,1.2184696791468346e-07,1.453866958618164,-0.2765664160251604,10.876683235168457,8.999999999999999e-08,0.0,0.0,0.0,8.999999999999999e-08,0.0,0.0,0.0,8.999999999999999e-08
1676469261.7166574,7224,1676469261,712492544,base_link,0.01242316818857874,0.09694112859129327,0.014008221599020399,-0.9951140251784065,1.0,0.0,0.0,0.0,1.0,0.0,0.0,0.0,1.0,-0.025990305468440056,-0.033126138150691986,-0.011490692384541031,1.2184696791468346e-07,0.0,0.0,0.0,1.2184696791468346e-07,0.0,0.0,0.0,1.2184696791468346e-07,1.1195156574249268,-1.218718647956847,8.764586448669434,8.999999999999999e-08,0.0,0.0,0.0,8.999999999999999e-08,0.0,0.0,0.0,8.999999999999999e-08
1676469261.7378986,7225,1676469261,732492544,base_link,0.012135945318511093,0.09727940183161973,0.013898302618103998,-0.9950861239646923,1.0,0.0,0.0,0.0,1.0,0.0,0.0,0.0,1.0,0.036871228367090225,-0.028692569583654404,-0.0036539982538670267,1.2184696791468346e-07,0.0,0.0,0.0,1.2184696791468346e-07,0.0,0.0,0.0,1.2184696791468346e-07,1.775849461555481,-0.3494000136852253,9.339329719543457,8.999999999999999e-08,0.0,0.0,0.0,8.999999999999999e-08,0.0,0.0,0.0,8.999999999999999e-08
1676469261.7562265,7226,1676469261,751492544,base_link,0.011694267419541184,0.09764487822848196,0.014159613078871541,-0.9950519007237015,1.0,0.0,0.0,0.0,1.0,0.0,0.0,0.0,1.0,0.05769919976592064,-0.038115054368972785,-0.08245859295129776,1.2184696791468346e-07,0.0,0.0,0.0,1.2184696791468346e-07,0.0,0.0,0.0,1.2184696791468346e-07,2.1285033226013184,-0.13426923751830933,9.867773056030273,8.999999999999999e-08,0.0,0.0,0.0,8.999999999999999e-08,0.0,0.0,0.0,8.999999999999999e-08
1676469261.779808,7227,1676469261,771491520,base_link,0.011126091023121882,0.09738341498538855,0.014649485899113662,-0.9950769780985654,1.0,0.0,0.0,0.0,1.0,0.0,0.0,0.0,1.0,0.09748011827468872,0.1247769445180893,-0.023008629679679884,1.2184696791468346e-07,0.0,0.0,0.0,1.2184696791468346e-07,0.0,0.0,0.0,1.2184696791468346e-07,2.0674211978912354,0.05193490535020948,9.82299518585205,8.999999999999999e-08,0.0,0.0,0.0,8.999999999999999e-08,0.0,0.0,0.0,8.999999999999999e-08
1676469261.7957609,7228,1676469261,791491520,base_link,0.0102361392433901,0.09492804495826515,0.014236826105343485,-0.9953297327490853,1.0,0.0,0.0,0.0,1.0,0.0,0.0,0.0,1.0,0.06738298386335373,0.430714875459671,0.024402618408203073,1.2184696791468346e-07,0.0,0.0,0.0,1.2184696791468346e-07,0.0,0.0,0.0,1.2184696791468346e-07,3.3686580657958984,-0.3357386887073506,8.964735984802246,8.999999999999999e-08,0.0,0.0,0.0,8.999999999999999e-08,0.0,0.0,0.0,8.999999999999999e-08
1676469261.8179889,7229,1676469261,811491520,base_link,0.008963077879050353,0.08863575755161154,0.013695660570463602,-0.9959296509907893,1.0,0.0,0.0,0.0,1.0,0.0,0.0,0.0,1.0,0.10271454602479935,0.8686456680297852,0.033482749015092746,1.2184696791468346e-07,0.0,0.0,0.0,1.2184696791468346e-07,0.0,0.0,0.0,1.2184696791468346e-07,3.7685091495513916,-1.1798609495162953,8.960331916809082,8.999999999999999e-08,0.0,0.0,0.0,8.999999999999999e-08,0.0,0.0,0.0,8.999999999999999e-08
1676469261.8365216,7230,1676469261,831491520,base_link,0.008172115875580498,0.07833868977034295,0.013141176631454298,-0.9968067269083011,1.0,0.0,0.0,0.0,1.0,0.0,0.0,0.0,1.0,0.06090158224105835,1.1832826137542725,0.022580141201615188,1.2184696791468346e-07,0.0,0.0,0.0,1.2184696791468346e-07,0.0,0.0,0.0,1.2184696791468346e-07,4.186164855957031,0.9714040756225597,8.994873046875,8.999999999999999e-08,0.0,0.0,0.0,8.999999999999999e-08,0.0,0.0,0.0,8.999999999999999e-08
1676469261.8571868,7231,1676469261,851491520,base_link,0.00811093182243284,0.06567833755759118,0.012197045077961766,-0.9977333253728131,1.0,0.0,0.0,0.0,1.0,0.0,0.0,0.0,1.0,-0.018322398886084557,1.314274787902832,0.12505662441253645,1.2184696791468346e-07,0.0,0.0,0.0,1.2184696791468346e-07,0.0,0.0,0.0,1.2184696791468346e-07,1.4930295944213867,0.25843819975853083,9.570671081542969,8.999999999999999e-08,0.0,0.0,0.0,8.999999999999999e-08,0.0,0.0,0.0,8.999999999999999e-08
1676469261.8794804,7232,1676469261,871490496,base_link,0.008667104269560631,0.052188314095190334,0.010598625848186103,-0.998543429948041,1.0,0.0,0.0,0.0,1.0,0.0,0.0,0.0,1.0,-0.13453435897827148,1.3405637741088867,0.1989020258188246,1.2184696791468346e-07,0.0,0.0,0.0,1.2184696791468346e-07,0.0,0.0,0.0,1.2184696791468346e-07,1.4150913953781128,0.09602269530296444,9.665515899658203,8.999999999999999e-08,0.0,0.0,0.0,8.999999999999999e-08,0.0,0.0,0.0,8.999999999999999e-08
1676469261.895793,7233,1676469261,891490496,base_link,0.009867636175969195,0.039311519376088906,0.009033334041339987,-0.999137489777802,1.0,0.0,0.0,0.0,1.0,0.0,0.0,0.0,1.0,-0.2310081422328949,1.1867949962615967,0.16072060167789445,1.2184696791468346e-07,0.0,0.0,0.0,1.2184696791468346e-07,0.0,0.0,0.0,1.2184696791468346e-07,1.1204067468643188,0.3873869776725781,10.003212928771973,8.999999999999999e-08,0.0,0.0,0.0,8.999999999999999e-08,0.0,0.0,0.0,8.999999999999999e-08
1676469261.9171994,7234,1676469261,911490496,base_link,0.010578695657196486,0.028140673668204587,0.008122245617080017,-0.9995149990999141,1.0,0.0,0.0,0.0,1.0,0.0,0.0,0.0,1.0,0.012674218975007534,1.040173888206482,0.02451300621032702,1.2184696791468346e-07,0.0,0.0,0.0,1.2184696791468346e-07,0.0,0.0,0.0,1.2184696791468346e-07,-0.12301978468894958,-1.0111345052719105,9.909165382385254,8.999999999999999e-08,0.0,0.0,0.0,8.999999999999999e-08,0.0,0.0,0.0,8.999999999999999e-08
1676469261.9381278,7235,1676469261,931490496,base_link,0.011083497022890066,0.019580002703479676,0.007827259824352256,-0.9997162503015536,1.0,0.0,0.0,0.0,1.0,0.0,0.0,0.0,1.0,-0.08431990444660187,0.6292932629585266,0.038161668926477356,1.2184696791468346e-07,0.0,0.0,0.0,1.2184696791468346e-07,0.0,0.0,0.0,1.2184696791468346e-07,-0.061053261160850525,0.3813103139400494,9.484203338623047,8.999999999999999e-08,0.0,0.0,0.0,8.999999999999999e-08,0.0,0.0,0.0,8.999999999999999e-08
1676469261.95584,7236,1676469261,951490496,base_link,0.010792197926954131,0.013989353475686037,0.007864433344738849,-0.9998130194657346,1.0,0.0,0.0,0.0,1.0,0.0,0.0,0.0,1.0,0.15832862257957458,0.4579847753047943,-0.020144868642091807,1.2184696791468346e-07,0.0,0.0,0.0,1.2184696791468346e-07,0.0,0.0,0.0,1.2184696791468346e-07,-1.053439974784851,-1.0011992454528795,10.061345100402832,8.999999999999999e-08,0.0,0.0,0.0,8.999999999999999e-08,0.0,0.0,0.0,8.999999999999999e-08
1676469261.9795918,7237,1676469261,971489984,base_link,0.010421675247583854,0.010918605730477057,0.008209995355679655,-0.9998524267690924,1.0,0.0,0.0,0.0,1.0,0.0,0.0,0.0,1.0,0.08084091544151306,0.16675128042697906,0.047463633120059946,1.2184696791468346e-07,0.0,0.0,0.0,1.2184696791468346e-07,0.0,0.0,0.0,1.2184696791468346e-07,-0.8632562160491943,0.8501498699188245,9.71674919128418,8.999999999999999e-08,0.0,0.0,0.0,8.999999999999999e-08,0.0,0.0,0.0,8.999999999999999e-08
1676469261.9979286,7238,1676469261,991489984,base_link,0.009501004527403843,0.009899378185890083,0.008265165580380446,-0.9998716878788617,1.0,0.0,0.0,0.0,1.0,0.0,0.0,0.0,1.0,0.07474350184202194,0.046731464564800256,-0.03533048927783967,1.2184696791468346e-07,0.0,0.0,0.0,1.2184696791468346e-07,0.0,0.0,0.0,1.2184696791468346e-07,-0.7459601759910583,-0.6012461781501759,9.400879859924316,8.999999999999999e-08,0.0,0.0,0.0,8.999999999999999e-08,0.0,0.0,0.0,8.999999999999999e-08
1676469262.0158238,7239,1676469262,11489984,base_link,0.008819968254931608,0.010293212661718926,0.008513494811806613,-0.9998719407599529,1.0,0.0,0.0,0.0,1.0,0.0,0.0,0.0,1.0,0.04376545548439026,-0.0933312177658081,0.01353586930781604,1.2184696791468346e-07,0.0,0.0,0.0,1.2184696791468346e-07,0.0,0.0,0.0,1.2184696791468346e-07,-0.37916022539138794,-0.5329160690307605,10.084890365600586,8.999999999999999e-08,0.0,0.0,0.0,8.999999999999999e-08,0.0,0.0,0.0,8.999999999999999e-08
1676469262.0366685,7240,1676469262,31489984,base_link,0.008571826708690194,0.011480420237097473,0.008661135222140294,-0.9998598446144302,1.0,0.0,0.0,0.0,1.0,0.0,0.0,0.0,1.0,0.05717724189162254,-0.11961762607097626,-0.02515168488025664,1.2184696791468346e-07,0.0,0.0,0.0,1.2184696791468346e-07,0.0,0.0,0.0,1.2184696791468346e-07,-0.16945357620716095,0.5073094964027417,9.61833667755127,8.999999999999999e-08,0.0,0.0,0.0,8.999999999999999e-08,0.0,0.0,0.0,8.999999999999999e-08
1676469262.0591033,7241,1676469262,51489984,base_link,0.008521170971227784,0.012810182777482911,0.008681197122031456,-0.9998439973993901,1.0,0.0,0.0,0.0,1.0,0.0,0.0,0.0,1.0,0.02377711795270443,-0.12639200687408447,-0.06310031563043593,1.2184696791468346e-07,0.0,0.0,0.0,1.2184696791468346e-07,0.0,0.0,0.0,1.2184696791468346e-07,0.39462414383888245,0.06295533478260155,9.426061630249023,8.999999999999999e-08,0.0,0.0,0.0,8.999999999999999e-08,0.0,0.0,0.0,8.999999999999999e-08
1676469262.0769124,7242,1676469262,71488704,base_link,0.008324182034280057,0.013864613785981347,0.008877727876637752,-0.999829878205139,1.0,0.0,0.0,0.0,1.0,0.0,0.0,0.0,1.0,0.06586671620607376,-0.07693435996770859,-0.042532365769147866,1.2184696791468346e-07,0.0,0.0,0.0,1.2184696791468346e-07,0.0,0.0,0.0,1.2184696791468346e-07,0.20307503640651703,-0.7134062647819507,9.87978458404541,8.999999999999999e-08,0.0,0.0,0.0,8.999999999999999e-08,0.0,0.0,0.0,8.999999999999999e-08
1676469262.0967252,7243,1676469262,91488704,base_link,0.008344416472832334,0.014569766122972035,0.008846117740254608,-0.9998199315488904,1.0,0.0,0.0,0.0,1.0,0.0,0.0,0.0,1.0,-0.03989752382040024,-0.047323480248451226,0.04783881455659867,1.2184696791468346e-07,0.0,0.0,0.0,1.2184696791468346e-07,0.0,0.0,0.0,1.2184696791468346e-07,-0.526154637336731,0.005160151049496046,10.637900352478027,8.999999999999999e-08,0.0,0.0,0.0,8.999999999999999e-08,0.0,0.0,0.0,8.999999999999999e-08
1676469262.1179714,7244,1676469262,111488704,base_link,0.007997500823655355,0.014703121056566282,0.008786648537005719,-0.9998214066885883,1.0,0.0,0.0,0.0,1.0,0.0,0.0,0.0,1.0,0.0445716567337513,0.016861109063029293,0.02476108260452747,1.2184696791468346e-07,0.0,0.0,0.0,1.2184696791468346e-07,0.0,0.0,0.0,1.2184696791468346e-07,0.5911315083503723,-0.3922155797481526,8.932656288146973,8.999999999999999e-08,0.0,0.0,0.0,8.999999999999999e-08,0.0,0.0,0.0,8.999999999999999e-08
1676469262.1360986,7245,1676469262,131488704,base_link,0.007539596058736493,0.014362880414522217,0.008797353836527496,-0.9998297517645934,1.0,0.0,0.0,0.0,1.0,0.0,0.0,0.0,1.0,0.12477099150419235,0.053902897983789444,-0.0059132385067641804,1.2184696791468346e-07,0.0,0.0,0.0,1.2184696791468346e-07,0.0,0.0,0.0,1.2184696791468346e-07,0.03852664679288864,0.24489462375640994,10.093646049499512,8.999999999999999e-08,0.0,0.0,0.0,8.999999999999999e-08,0.0,0.0,0.0,8.999999999999999e-08
1676469262.1571512,7246,1676469262,151488704,base_link,0.007134138766250136,0.01365328092646912,0.008715588950416372,-0.999843407343511,1.0,0.0,0.0,0.0,1.0,0.0,0.0,0.0,1.0,-0.08885378390550613,0.08992962539196014,-0.0007225042209029308,1.2184696791468346e-07,0.0,0.0,0.0,1.2184696791468346e-07,0.0,0.0,0.0,1.2184696791468346e-07,0.7088913917541504,-0.19227173924445984,9.896380424499512,8.999999999999999e-08,0.0,0.0,0.0,8.999999999999999e-08,0.0,0.0,0.0,8.999999999999999e-08
1676469262.1794326,7247,1676469262,171487680,base_link,0.006595471419961291,0.012366125721841783,0.009345937216745287,-0.9998581587404898,1.0,0.0,0.0,0.0,1.0,0.0,0.0,0.0,1.0,0.21835851669311523,0.2879447340965271,-0.020418541505932843,1.2184696791468346e-07,0.0,0.0,0.0,1.2184696791468346e-07,0.0,0.0,0.0,1.2184696791468346e-07,0.6065385341644287,-0.41154271364211925,8.95833969116211,8.999999999999999e-08,0.0,0.0,0.0,8.999999999999999e-08,0.0,0.0,0.0,8.999999999999999e-08
1676469262.1959245,7248,1676469262,191487680,base_link,0.0010813893511134043,0.008088485991422756,0.009076197386275568,-0.9999255936981072,1.0,0.0,0.0,0.0,1.0,0.0,0.0,0.0,1.0,1.049487829208374,0.6062458157539368,0.12725937366485587,1.2184696791468346e-07,0.0,0.0,0.0,1.2184696791468346e-07,0.0,0.0,0.0,1.2184696791468346e-07,2.342319965362549,-0.5714591145515431,9.453370094299316,8.999999999999999e-08,0.0,0.0,0.0,8.999999999999999e-08,0.0,0.0,0.0,8.999999999999999e-08
1676469262.218178,7249,1676469262,211487680,base_link,-0.0148135207749734,0.0023884480756777584,0.0078038261765802155,-0.99985702077558,1.0,0.0,0.0,0.0,1.0,0.0,0.0,0.0,1.0,1.7051585912704468,0.3311404883861542,-0.07470924407243733,1.2184696791468346e-07,0.0,0.0,0.0,1.2184696791468346e-07,0.0,0.0,0.0,1.2184696791468346e-07,1.291473388671875,-2.5833947658538805,11.368314743041992,8.999999999999999e-08,0.0,0.0,0.0,8.999999999999999e-08,0.0,0.0,0.0,8.999999999999999e-08
1676469262.2365024,7250,1676469262,231487680,base_link,-0.027178482190125006,0.0035546019831361,0.006855648525630625,-0.9996008100834823,1.0,0.0,0.0,0.0,1.0,0.0,0.0,0.0,1.0,0.40282365679740906,-0.47342705726623535,-0.07312251627445215,1.2184696791468346e-07,0.0,0.0,0.0,1.2184696791468346e-07,0.0,0.0,0.0,1.2184696791468346e-07,-1.5183000564575195,-0.8638284802436808,17.093889236450195,8.999999999999999e-08,0.0,0.0,0.0,8.999999999999999e-08,0.0,0.0,0.0,8.999999999999999e-08
1676469262.2574904,7251,1676469262,251487680,base_link,-0.027186392626754895,0.00987966646704102,0.0062763822396968766,-0.9995618663954582,1.0,0.0,0.0,0.0,1.0,0.0,0.0,0.0,1.0,-0.07141152769327164,-0.6150190830230713,0.10200933367013938,1.2184696791468346e-07,0.0,0.0,0.0,1.2184696791468346e-07,0.0,0.0,0.0,1.2184696791468346e-07,-0.8605596423149109,1.9268742799758942,24.688222885131836,8.999999999999999e-08,0.0,0.0,0.0,8.999999999999999e-08,0.0,0.0,0.0,8.999999999999999e-08
1676469262.2788787,7252,1676469262,271486656,base_link,-0.02396349720738398,0.016780580378699998,0.005979204810846587,-0.9995541535221807,1.0,0.0,0.0,0.0,1.0,0.0,0.0,0.0,1.0,-0.509954571723938,-0.6058422327041626,0.056563533842563705,1.2184696791468346e-07,0.0,0.0,0.0,1.2184696791468346e-07,0.0,0.0,0.0,1.2184696791468346e-07,2.0992705821990967,-0.8260062932968106,27.072429656982422,8.999999999999999e-08,0.0,0.0,0.0,8.999999999999999e-08,0.0,0.0,0.0,8.999999999999999e-08
1676469262.2957993,7253,1676469262,291486656,base_link,-0.02066312686662208,0.02141241444494758,0.005536072845603015,-0.9995418466424155,1.0,0.0,0.0,0.0,1.0,0.0,0.0,0.0,1.0,-0.2607322037220001,-0.34948232769966125,0.013401329517364545,1.2184696791468346e-07,0.0,0.0,0.0,1.2184696791468346e-07,0.0,0.0,0.0,1.2184696791468346e-07,0.7209155559539795,0.8488786220550569,26.03976821899414,8.999999999999999e-08,0.0,0.0,0.0,8.999999999999999e-08,0.0,0.0,0.0,8.999999999999999e-08
1676469262.3169274,7254,1676469262,311486656,base_link,-0.01787741869006211,0.022873165315760734,0.005080844734836847,-0.9995656596118242,1.0,0.0,0.0,0.0,1.0,0.0,0.0,0.0,1.0,-0.4303344786167145,-0.03898599371314048,0.04964034259319306,1.2184696791468346e-07,0.0,0.0,0.0,1.2184696791468346e-07,0.0,0.0,0.0,1.2184696791468346e-07,-0.5053003430366516,-0.06704866886138632,23.19388198852539,8.999999999999999e-08,0.0,0.0,0.0,8.999999999999999e-08,0.0,0.0,0.0,8.999999999999999e-08
1676469262.3376713,7255,1676469262,331486656,base_link,-0.01363600631620785,0.022888971536405206,0.004625658770919235,-0.9996343589748969,1.0,0.0,0.0,0.0,1.0,0.0,0.0,0.0,1.0,-0.34799984097480774,0.022570429369807257,0.11616116762161255,1.2184696791468346e-07,0.0,0.0,0.0,1.2184696791468346e-07,0.0,0.0,0.0,1.2184696791468346e-07,-1.2113522291183472,-0.7756839394569375,18.406824111938477,8.999999999999999e-08,0.0,0.0,0.0,8.999999999999999e-08,0.0,0.0,0.0,8.999999999999999e-08
1676469262.3559015,7256,1676469262,351486656,base_link,-0.0087601842674078,0.021339032377673716,0.004257126727539944,-0.9997248904054984,1.0,0.0,0.0,0.0,1.0,0.0,0.0,0.0,1.0,-0.6081264615058899,0.23432162404060364,0.07186952233314511,1.2184696791468346e-07,0.0,0.0,0.0,1.2184696791468346e-07,0.0,0.0,0.0,1.2184696791468346e-07,0.3817511200904846,-0.5040165185928327,14.837486267089844,8.999999999999999e-08,0.0,0.0,0.0,8.999999999999999e-08,0.0,0.0,0.0,8.999999999999999e-08
1676469262.3801682,7257,1676469262,371485376,base_link,-0.002260527122091007,0.018438141844376314,0.003858122512687304,-0.9998200158425874,1.0,0.0,0.0,0.0,1.0,0.0,0.0,0.0,1.0,-0.7410761117935181,0.31357505917549133,0.08362480252981182,1.2184696791468346e-07,0.0,0.0,0.0,1.2184696791468346e-07,0.0,0.0,0.0,1.2184696791468346e-07,-0.07458347082138062,0.7658781409263622,9.39981746673584,8.999999999999999e-08,0.0,0.0,0.0,8.999999999999999e-08,0.0,0.0,0.0,8.999999999999999e-08
1676469262.3992238,7258,1676469262,396485376,base_link,0.006499941307272049,0.01450710561303748,0.0033465862123105965,-0.9998681053967383,1.0,0.0,0.0,0.0,1.0,0.0,0.0,0.0,1.0,-0.7083815932273865,0.3320765197277069,0.12983269989490506,1.2184696791468346e-07,0.0,0.0,0.0,1.2184696791468346e-07,0.0,0.0,0.0,1.2184696791468346e-07,0.3755568563938141,0.3659886121749885,5.6778340339660645,8.999999999999999e-08,0.0,0.0,0.0,8.999999999999999e-08,0.0,0.0,0.0,8.999999999999999e-08
1676469262.4180753,7259,1676469262,411485376,base_link,0.011791090131622496,0.012390616786298502,0.003132648809269308,-0.9998488021401204,1.0,0.0,0.0,0.0,1.0,0.0,0.0,0.0,1.0,-0.6456827521324158,0.2720126509666443,0.02221315540373322,1.2184696791468346e-07,0.0,0.0,0.0,1.2184696791468346e-07,0.0,0.0,0.0,1.2184696791468346e-07,-1.0837680101394653,-0.28687107563018754,3.4317188262939453,8.999999999999999e-08,0.0,0.0,0.0,8.999999999999999e-08,0.0,0.0,0.0,8.999999999999999e-08
1676469262.4357376,7260,1676469262,431485376,base_link,0.01825860581861527,0.009791670762067604,0.002798255713183876,-0.9997814514762,1.0,0.0,0.0,0.0,1.0,0.0,0.0,0.0,1.0,-0.6372202038764954,0.2585359811782837,0.11183995753526685,1.2184696791468346e-07,0.0,0.0,0.0,1.2184696791468346e-07,0.0,0.0,0.0,1.2184696791468346e-07,0.13417893648147583,-0.6364285945892332,1.7090343236923218,8.999999999999999e-08,0.0,0.0,0.0,8.999999999999999e-08,0.0,0.0,0.0,8.999999999999999e-08
1676469262.4569383,7261,1676469262,451485376,base_link,0.02432511947251335,0.0076239961106963185,0.0026064032587622956,-0.9996717010826777,1.0,0.0,0.0,0.0,1.0,0.0,0.0,0.0,1.0,-0.47160547971725464,0.19362665712833405,0.015031764283776259,1.2184696791468346e-07,0.0,0.0,0.0,1.2184696791468346e-07,0.0,0.0,0.0,1.2184696791468346e-07,-0.1847279667854309,0.05083116143941902,1.8569657802581787,8.999999999999999e-08,0.0,0.0,0.0,8.999999999999999e-08,0.0,0.0,0.0,8.999999999999999e-08
1676469262.480247,7262,1676469262,471484352,base_link,0.029233383399410156,0.005904375715493491,0.0024499963039383336,-0.9995522147671492,1.0,0.0,0.0,0.0,1.0,0.0,0.0,0.0,1.0,-0.5175502896308899,0.14443239569664001,0.00029944343259556314,1.2184696791468346e-07,0.0,0.0,0.0,1.2184696791468346e-07,0.0,0.0,0.0,1.2184696791468346e-07,0.024081850424408913,-0.2597701549530027,1.729695200920105,8.999999999999999e-08,0.0,0.0,0.0,8.999999999999999e-08,0.0,0.0,0.0,8.999999999999999e-08
1676469262.495659,7263,1676469262,491484352,base_link,0.03355832704038209,0.004609474381091006,0.0022375340405949187,-0.9994236247323425,1.0,0.0,0.0,0.0,1.0,0.0,0.0,0.0,1.0,-0.36950916051864624,0.08530388772487642,0.07029262930154799,1.2184696791468346e-07,0.0,0.0,0.0,1.2184696791468346e-07,0.0,0.0,0.0,1.2184696791468346e-07,0.24714824557304382,-0.1778208315372464,2.5182044506073,8.999999999999999e-08,0.0,0.0,0.0,8.999999999999999e-08,0.0,0.0,0.0,8.999999999999999e-08
1676469262.5175624,7264,1676469262,511484352,base_link,0.0374115302255947,0.00339519074826675,0.002148562043388423,-0.999291915830746,1.0,0.0,0.0,0.0,1.0,0.0,0.0,0.0,1.0,-0.34149473905563354,0.07539088279008865,-0.017049599438905726,1.2184696791468346e-07,0.0,0.0,0.0,1.2184696791468346e-07,0.0,0.0,0.0,1.2184696791468346e-07,-0.1392788290977478,0.2467290461063389,3.239415168762207,8.999999999999999e-08,0.0,0.0,0.0,8.999999999999999e-08,0.0,0.0,0.0,8.999999999999999e-08
1676469262.5381517,7265,1676469262,531484352,base_link,0.041298172983833654,0.0021563578932739147,0.002041045432837131,-0.9991425052527748,1.0,0.0,0.0,0.0,1.0,0.0,0.0,0.0,1.0,-0.46985432505607605,0.0884668231010437,0.04669880867004393,1.2184696791468346e-07,0.0,0.0,0.0,1.2184696791468346e-07,0.0,0.0,0.0,1.2184696791468346e-07,-0.1660444736480713,0.2451903820037847,4.221271991729736,8.999999999999999e-08,0.0,0.0,0.0,8.999999999999999e-08,0.0,0.0,0.0,8.999999999999999e-08
1676469262.5564842,7266,1676469262,551484352,base_link,0.04523161850025494,0.0008755691676774993,0.0018783164507365905,-0.9989743814740649,1.0,0.0,0.0,0.0,1.0,0.0,0.0,0.0,1.0,-0.45589959621429443,0.18572527170181274,-0.00645599374547603,1.2184696791468346e-07,0.0,0.0,0.0,1.2184696791468346e-07,0.0,0.0,0.0,1.2184696791468346e-07,-0.987468421459198,-1.0654002428054803,6.020824909210205,8.999999999999999e-08,0.0,0.0,0.0,8.999999999999999e-08,0.0,0.0,0.0,8.999999999999999e-08
1676469262.5812423,7267,1676469262,571483328,base_link,0.049137667248055135,-0.0006176251864346474,0.0018470856359900107,-0.9987901575992237,1.0,0.0,0.0,0.0,1.0,0.0,0.0,0.0,1.0,-0.3008520007133484,0.14439786970615387,-0.01568339020013811,1.2184696791468346e-07,0.0,0.0,0.0,1.2184696791468346e-07,0.0,0.0,0.0,1.2184696791468346e-07,1.7613129615783691,2.0620062351226816,6.591789245605469,8.999999999999999e-08,0.0,0.0,0.0,8.999999999999999e-08,0.0,0.0,0.0,8.999999999999999e-08
1676469262.5978308,7268,1676469262,591483328,base_link,0.052367290687391856,-0.0018380925521888634,0.0017010046590512724,-0.998624773365667,1.0,0.0,0.0,0.0,1.0,0.0,0.0,0.0,1.0,-0.40177008509635925,0.06862743943929672,-0.011424575001001367,1.2184696791468346e-07,0.0,0.0,0.0,1.2184696791468346e-07,0.0,0.0,0.0,1.2184696791468346e-07,0.09497182816267014,-0.18522244691848647,8.730066299438477,8.999999999999999e-08,0.0,0.0,0.0,8.999999999999999e-08,0.0,0.0,0.0,8.999999999999999e-08
1676469262.6158168,7269,1676469262,611483328,base_link,0.05537118614281636,-0.0026249004569023583,0.0016025496209298032,-0.9984611592997477,1.0,0.0,0.0,0.0,1.0,0.0,0.0,0.0,1.0,-0.214069664478302,0.04737555235624314,0.06367587298154831,1.2184696791468346e-07,0.0,0.0,0.0,1.2184696791468346e-07,0.0,0.0,0.0,1.2184696791468346e-07,-0.18286161124706268,1.2744475603103649,9.513679504394531,8.999999999999999e-08,0.0,0.0,0.0,8.999999999999999e-08,0.0,0.0,0.0,8.999999999999999e-08
1676469262.6374252,7270,1676469262,631483328,base_link,0.05767916600651914,-0.0031462964856525987,0.0014995005763206706,-0.998329113223363,1.0,0.0,0.0,0.0,1.0,0.0,0.0,0.0,1.0,-0.22405941784381866,0.06630583107471466,-0.006658981554210194,1.2184696791468346e-07,0.0,0.0,0.0,1.2184696791468346e-07,0.0,0.0,0.0,1.2184696791468346e-07,0.4013645350933075,0.028584491461516762,10.90725326538086,8.999999999999999e-08,0.0,0.0,0.0,8.999999999999999e-08,0.0,0.0,0.0,8.999999999999999e-08
1676469262.65817,7271,1676469262,651483328,base_link,0.0595239441025531,-0.003570804812210384,0.0013520287533810695,-0.9982195735640833,1.0,0.0,0.0,0.0,1.0,0.0,0.0,0.0,1.0,-0.19916388392448425,0.03958244249224663,0.013309790752828116,1.2184696791468346e-07,0.0,0.0,0.0,1.2184696791468346e-07,0.0,0.0,0.0,1.2184696791468346e-07,0.07764693349599838,-0.8095864653587327,11.592031478881836,8.999999999999999e-08,0.0,0.0,0.0,8.999999999999999e-08,0.0,0.0,0.0,8.999999999999999e-08
1676469262.677089,7272,1676469262,671482304,base_link,0.06123829350751403,-0.00429999797500949,0.001169111430843765,-0.9981131949184417,1.0,0.0,0.0,0.0,1.0,0.0,0.0,0.0,1.0,-0.0909183919429779,0.07905759662389755,0.04178298637270927,1.2184696791468346e-07,0.0,0.0,0.0,1.2184696791468346e-07,0.0,0.0,0.0,1.2184696791468346e-07,0.27627840638160706,-0.16376730799674843,11.758492469787598,8.999999999999999e-08,0.0,0.0,0.0,8.999999999999999e-08,0.0,0.0,0.0,8.999999999999999e-08
1676469262.6967258,7273,1676469262,691482304,base_link,0.06215666016567625,-0.005263535518063261,0.0010676639664780512,-0.9980519555475554,1.0,0.0,0.0,0.0,1.0,0.0,0.0,0.0,1.0,-0.11020249128341675,0.10491837561130524,-0.004208331461995853,1.2184696791468346e-07,0.0,0.0,0.0,1.2184696791468346e-07,0.0,0.0,0.0,1.2184696791468346e-07,0.09158840030431747,-0.6367301344871507,11.559592247009277,8.999999999999999e-08,0.0,0.0,0.0,8.999999999999999e-08,0.0,0.0,0.0,8.999999999999999e-08
1676469262.7179682,7274,1676469262,711482304,base_link,0.06237522581951965,-0.006120494217945111,0.0010366438859740388,-0.9980334952279076,1.0,0.0,0.0,0.0,1.0,0.0,0.0,0.0,1.0,0.07109905034303665,0.06612825393676758,0.03487252071499824,1.2184696791468346e-07,0.0,0.0,0.0,1.2184696791468346e-07,0.0,0.0,0.0,1.2184696791468346e-07,0.06470756232738495,-0.4155939519405351,11.383195877075195,8.999999999999999e-08,0.0,0.0,0.0,8.999999999999999e-08,0.0,0.0,0.0,8.999999999999999e-08
1676469262.7364044,7275,1676469262,731482304,base_link,0.06191712908887672,-0.006801553045566745,0.0009071266205000659,-0.9980577296658014,1.0,0.0,0.0,0.0,1.0,0.0,0.0,0.0,1.0,0.0578378289937973,0.08177150785923004,0.011194775812327851,1.2184696791468346e-07,0.0,0.0,0.0,1.2184696791468346e-07,0.0,0.0,0.0,1.2184696791468346e-07,0.14187999069690704,-0.31511548161506525,10.451420783996582,8.999999999999999e-08,0.0,0.0,0.0,8.999999999999999e-08,0.0,0.0,0.0,8.999999999999999e-08
1676469262.7570822,7276,1676469262,751482304,base_link,0.061100752535754796,-0.007398555252189466,0.0008439906414307044,-0.9981038383180724,1.0,0.0,0.0,0.0,1.0,0.0,0.0,0.0,1.0,0.07544494420289993,0.04095773398876191,0.03632914647459983,1.2184696791468346e-07,0.0,0.0,0.0,1.2184696791468346e-07,0.0,0.0,0.0,1.2184696791468346e-07,-0.1282438188791275,-1.4149116277694689,10.013132095336914,8.999999999999999e-08,0.0,0.0,0.0,8.999999999999999e-08,0.0,0.0,0.0,8.999999999999999e-08
1676469262.7788117,7277,1676469262,771481280,base_link,0.05991799079434964,-0.007833721463064445,0.0007835099138176181,-0.9981723269469026,1.0,0.0,0.0,0.0,1.0,0.0,0.0,0.0,1.0,0.0912754014134407,0.036665879189968116,0.052992925047874444,1.2184696791468346e-07,0.0,0.0,0.0,1.2184696791468346e-07,0.0,0.0,0.0,1.2184696791468346e-07,-0.14323782920837402,0.2819631695747386,8.438630104064941,8.999999999999999e-08,0.0,0.0,0.0,8.999999999999999e-08,0.0,0.0,0.0,8.999999999999999e-08
1676469262.7964647,7278,1676469262,791481280,base_link,0.058166636456396144,-0.008108740186310153,0.0007415316527007572,-0.9982737322644197,1.0,0.0,0.0,0.0,1.0,0.0,0.0,0.0,1.0,0.10593557357788086,0.020594062283635146,0.06441391259431839,1.2184696791468346e-07,0.0,0.0,0.0,1.2184696791468346e-07,0.0,0.0,0.0,1.2184696791468346e-07,1.1678351163864136,0.7118270993232736,7.585169792175293,8.999999999999999e-08,0.0,0.0,0.0,8.999999999999999e-08,0.0,0.0,0.0,8.999999999999999e-08
1676469262.8174057,7279,1676469262,811481280,base_link,0.056493891259271525,-0.008169974288840422,0.000683579735998283,-0.998369363463691,1.0,0.0,0.0,0.0,1.0,0.0,0.0,0.0,1.0,0.14394056797027588,0.010097061283886443,0.08519917726516724,1.2184696791468346e-07,0.0,0.0,0.0,1.2184696791468346e-07,0.0,0.0,0.0,1.2184696791468346e-07,1.5733221769332886,1.0164648294448861,7.602698802947998,8.999999999999999e-08,0.0,0.0,0.0,8.999999999999999e-08,0.0,0.0,0.0,8.999999999999999e-08
1676469262.8392277,7280,1676469262,831481280,base_link,0.054249368744357956,-0.007773627959622005,0.0006784378204799301,-0.998496984120982,1.0,0.0,0.0,0.0,1.0,0.0,0.0,0.0,1.0,0.2159235179424286,-0.02216029725968837,0.05525766313076019,1.2184696791468346e-07,0.0,0.0,0.0,1.2184696791468346e-07,0.0,0.0,0.0,1.2184696791468346e-07,1.816953420639038,0.7357919216156015,7.702627658843994,8.999999999999999e-08,0.0,0.0,0.0,8.999999999999999e-08,0.0,0.0,0.0,8.999999999999999e-08
1676469262.8562636,7281,1676469262,851481280,base_link,0.051938899582415,-0.007242846354543997,0.0005691088954426834,-0.9986238461349998,1.0,0.0,0.0,0.0,1.0,0.0,0.0,0.0,1.0,0.2314773052930832,0.009795059449970722,-0.001849206862971188,1.2184696791468346e-07,0.0,0.0,0.0,1.2184696791468346e-07,0.0,0.0,0.0,1.2184696791468346e-07,2.0781850814819336,0.36287349462509244,7.416708469390869,8.999999999999999e-08,0.0,0.0,0.0,8.999999999999999e-08,0.0,0.0,0.0,8.999999999999999e-08
1676469262.8775787,7282,1676469262,871480256,base_link,0.04988243498846803,-0.006956304419497604,0.0004158208074085346,-0.9987308569833689,1.0,0.0,0.0,0.0,1.0,0.0,0.0,0.0,1.0,0.26001548767089844,0.03557365387678146,-0.03848396614193917,1.2184696791468346e-07,0.0,0.0,0.0,1.2184696791468346e-07,0.0,0.0,0.0,1.2184696791468346e-07,2.0169594287872314,-0.384662687778472,7.316758632659912,8.999999999999999e-08,0.0,0.0,0.0,8.999999999999999e-08,0.0,0.0,0.0,8.999999999999999e-08
1676469262.89579,7283,1676469262,890480256,base_link,0.04774811726278734,-0.0067082399229636235,0.00037358966520064507,-0.9988368141605253,1.0,0.0,0.0,0.0,1.0,0.0,0.0,0.0,1.0,0.26159852743148804,0.02979100309312343,-0.060029558837413795,1.2184696791468346e-07,0.0,0.0,0.0,1.2184696791468346e-07,0.0,0.0,0.0,1.2184696791468346e-07,1.436044692993164,-0.6358660459518424,7.644459247589111,8.999999999999999e-08,0.0,0.0,0.0,8.999999999999999e-08,0.0,0.0,0.0,8.999999999999999e-08
1676469262.9173167,7284,1676469262,910480256,base_link,0.04573922724118605,-0.00652463507996001,0.000321454013592643,-0.9989321081850084,1.0,0.0,0.0,0.0,1.0,0.0,0.0,0.0,1.0,0.2520887851715088,0.025415893644094464,-0.04013554006814957,1.2184696791468346e-07,0.0,0.0,0.0,1.2184696791468346e-07,0.0,0.0,0.0,1.2184696791468346e-07,1.1279289722442627,-0.4996581971645345,8.074424743652344,8.999999999999999e-08,0.0,0.0,0.0,8.999999999999999e-08,0.0,0.0,0.0,8.999999999999999e-08
1676469262.9381943,7285,1676469262,931480256,base_link,0.04358058946682556,-0.005958742515894397,0.0003804174546593884,-0.9990321226565247,1.0,0.0,0.0,0.0,1.0,0.0,0.0,0.0,1.0,0.21419864892959595,-0.054782729595899575,0.03053423389792443,1.2184696791468346e-07,0.0,0.0,0.0,1.2184696791468346e-07,0.0,0.0,0.0,1.2184696791468346e-07,1.4158838987350464,-0.6470084190368641,8.877758979797363,8.999999999999999e-08,0.0,0.0,0.0,8.999999999999999e-08,0.0,0.0,0.0,8.999999999999999e-08
1676469262.9557812,7286,1676469262,950480256,base_link,0.04152865039073745,-0.005089077858275529,0.00033506744566167915,-0.9991243399610666,1.0,0.0,0.0,0.0,1.0,0.0,0.0,0.0,1.0,0.21425658464431763,-0.0762435644865036,0.03696205466985703,1.2184696791468346e-07,0.0,0.0,0.0,1.2184696791468346e-07,0.0,0.0,0.0,1.2184696791468346e-07,1.182267189025879,-0.7377544045448292,9.289173126220703,8.999999999999999e-08,0.0,0.0,0.0,8.999999999999999e-08,0.0,0.0,0.0,8.999999999999999e-08
1676469262.9787712,7287,1676469262,970479232,base_link,0.03945923486049648,-0.004440761863590796,0.00029671381351677103,-0.999211331056393,1.0,0.0,0.0,0.0,1.0,0.0,0.0,0.0,1.0,0.21177542209625244,-0.0437760204076767,-0.015405930578708643,1.2184696791468346e-07,0.0,0.0,0.0,1.2184696791468346e-07,0.0,0.0,0.0,1.2184696791468346e-07,0.6332566142082214,-1.1176750659942616,9.352001190185547,8.999999999999999e-08,0.0,0.0,0.0,8.999999999999999e-08,0.0,0.0,0.0,8.999999999999999e-08
1676469262.9952328,7288,1676469262,990479232,base_link,0.037082157872838126,-0.003922858754910899,0.00034459263342513473,-0.9993044755916022,1.0,0.0,0.0,0.0,1.0,0.0,0.0,0.0,1.0,0.2600512206554413,-0.03568011149764062,-0.045548234134912484,1.2184696791468346e-07,0.0,0.0,0.0,1.2184696791468346e-07,0.0,0.0,0.0,1.2184696791468346e-07,0.35890358686447144,-0.4968213737010944,9.337835311889648,8.999999999999999e-08,0.0,0.0,0.0,8.999999999999999e-08,0.0,0.0,0.0,8.999999999999999e-08
1676469263.0161264,7289,1676469263,10479232,base_link,0.034945774951580404,-0.0033513698796164455,0.0003495238147009499,-0.9993835852262571,1.0,0.0,0.0,0.0,1.0,0.0,0.0,0.0,1.0,0.2564430832862854,-0.054386306554079056,0.024128243327140815,1.2184696791468346e-07,0.0,0.0,0.0,1.2184696791468346e-07,0.0,0.0,0.0,1.2184696791468346e-07,0.4136321544647217,0.9889709353446972,9.44709587097168,8.999999999999999e-08,0.0,0.0,0.0,8.999999999999999e-08,0.0,0.0,0.0,8.999999999999999e-08
1676469263.0370975,7290,1676469263,30479232,base_link,0.03264126166616764,-0.0026988154924783396,0.0003695014208950998,-0.9994634113573367,1.0,0.0,0.0,0.0,1.0,0.0,0.0,0.0,1.0,0.2593526542186737,-0.04903745278716088,-0.08117222040891647,1.2184696791468346e-07,0.0,0.0,0.0,1.2184696791468346e-07,0.0,0.0,0.0,1.2184696791468346e-07,-0.23276466131210327,-0.5973384380340564,10.140100479125977,8.999999999999999e-08,0.0,0.0,0.0,8.999999999999999e-08,0.0,0.0,0.0,8.999999999999999e-08
1676469263.0579193,7291,1676469263,50479232,base_link,0.03043446848320542,-0.0019758284531224608,0.00045586031349392536,-0.9995347659718657,1.0,0.0,0.0,0.0,1.0,0.0,0.0,0.0,1.0,0.14007392525672913,-0.09411491453647614,0.053428813815116896,1.2184696791468346e-07,0.0,0.0,0.0,1.2184696791468346e-07,0.0,0.0,0.0,1.2184696791468346e-07,-0.27912408113479614,-1.5282640457153307,10.111215591430664,8.999999999999999e-08,0.0,0.0,0.0,8.999999999999999e-08,0.0,0.0,0.0,8.999999999999999e-08
1676469263.0773036,7292,1676469263,70478208,base_link,0.02841637464356057,-0.0012414222519981648,0.0004474309437917523,-0.9995952888463273,1.0,0.0,0.0,0.0,1.0,0.0,0.0,0.0,1.0,0.2177695631980896,-0.07177021354436874,0.002823224058374771,1.2184696791468346e-07,0.0,0.0,0.0,1.2184696791468346e-07,0.0,0.0,0.0,1.2184696791468346e-07,0.9941079616546631,0.47143813967704895,10.08089542388916,8.999999999999999e-08,0.0,0.0,0.0,8.999999999999999e-08,0.0,0.0,0.0,8.999999999999999e-08
1676469263.0970862,7293,1676469263,90478208,base_link,0.026462968313845845,-0.0005613960221650494,0.0004308250854784581,-0.9996495739872094,1.0,0.0,0.0,0.0,1.0,0.0,0.0,0.0,1.0,0.24791568517684937,-0.05628530681133271,-0.04667010158300399,1.2184696791468346e-07,0.0,0.0,0.0,1.2184696791468346e-07,0.0,0.0,0.0,1.2184696791468346e-07,-0.5445356369018555,-0.13066546618938327,9.845945358276367,8.999999999999999e-08,0.0,0.0,0.0,8.999999999999999e-08,0.0,0.0,0.0,8.999999999999999e-08
1676469263.116006,7294,1676469263,110478208,base_link,0.024615264963107425,4.452682836280295e-05,0.0004892406175145456,-0.9996968627512386,1.0,0.0,0.0,0.0,1.0,0.0,0.0,0.0,1.0,0.17658117413520813,-0.040527481585741036,0.04458484426140786,1.2184696791468346e-07,0.0,0.0,0.0,1.2184696791468346e-07,0.0,0.0,0.0,1.2184696791468346e-07,-0.8806746006011963,-0.15967431664466744,9.351106643676758,8.999999999999999e-08,0.0,0.0,0.0,8.999999999999999e-08,0.0,0.0,0.0,8.999999999999999e-08
1676469263.1374555,7295,1676469263,130478208,base_link,0.022733265931482283,0.0003835718828526253,0.0004861638975732291,-0.9997414119701146,1.0,0.0,0.0,0.0,1.0,0.0,0.0,0.0,1.0,0.1627236157655716,-0.029712218791246414,0.012732550501823429,1.2184696791468346e-07,0.0,0.0,0.0,1.2184696791468346e-07,0.0,0.0,0.0,1.2184696791468346e-07,0.8122329711914062,-1.1570611000061022,10.076579093933105,8.999999999999999e-08,0.0,0.0,0.0,8.999999999999999e-08,0.0,0.0,0.0,8.999999999999999e-08
1676469263.1557448,7296,1676469263,150478208,base_link,0.020844153302081912,0.000752525394716992,0.000439591629968679,-0.9997824208537157,1.0,0.0,0.0,0.0,1.0,0.0,0.0,0.0,1.0,0.16662739217281342,-0.05278707668185234,-0.006364309228956693,1.2184696791468346e-07,0.0,0.0,0.0,1.2184696791468346e-07,0.0,0.0,0.0,1.2184696791468346e-07,0.1844702959060669,-0.43060225248336675,9.375877380371094,8.999999999999999e-08,0.0,0.0,0.0,8.999999999999999e-08,0.0,0.0,0.0,8.999999999999999e-08
1676469263.1789498,7297,1676469263,170477184,base_link,0.018871675523416006,0.0012680682798802804,0.00042871774305289494,-0.9998211116606487,1.0,0.0,0.0,0.0,1.0,0.0,0.0,0.0,1.0,0.1832277476787567,-0.08232899755239487,0.01939566433429719,1.2184696791468346e-07,0.0,0.0,0.0,1.2184696791468346e-07,0.0,0.0,0.0,1.2184696791468346e-07,0.2867031991481781,0.6897302865982066,8.397851943969727,8.999999999999999e-08,0.0,0.0,0.0,8.999999999999999e-08,0.0,0.0,0.0,8.999999999999999e-08
1676469263.1960468,7298,1676469263,190477184,base_link,0.016894115756782,0.00206653966637466,0.0004064642070391433,-0.9998550820205485,1.0,0.0,0.0,0.0,1.0,0.0,0.0,0.0,1.0,0.22322800755500793,-0.07741331309080124,-0.02509745955467223,1.2184696791468346e-07,0.0,0.0,0.0,1.2184696791468346e-07,0.0,0.0,0.0,1.2184696791468346e-07,0.7474786043167114,0.7443209290504467,8.617363929748535,8.999999999999999e-08,0.0,0.0,0.0,8.999999999999999e-08,0.0,0.0,0.0,8.999999999999999e-08
1676469263.2185714,7299,1676469263,215477184,base_link,0.014947198066104426,0.0032486277167481496,0.00036747837216658007,-0.9998830253811113,1.0,0.0,0.0,0.0,1.0,0.0,0.0,0.0,1.0,0.08449552208185196,-0.11943238973617554,0.02854627370834352,1.2184696791468346e-07,0.0,0.0,0.0,1.2184696791468346e-07,0.0,0.0,0.0,1.2184696791468346e-07,-0.7075613737106323,-0.8770473599433888,9.318256378173828,8.999999999999999e-08,0.0,0.0,0.0,8.999999999999999e-08,0.0,0.0,0.0,8.999999999999999e-08
1676469263.235753,7300,1676469263,230477184,base_link,0.014033632197405398,0.00387960950289376,0.0003380177250574721,-0.9998940257085726,1.0,0.0,0.0,0.0,1.0,0.0,0.0,0.0,1.0,0.1006104052066803,-0.07558061927556992,0.0076253330335021114,1.2184696791468346e-07,0.0,0.0,0.0,1.2184696791468346e-07,0.0,0.0,0.0,1.2184696791468346e-07,-1.0666370391845703,-0.7749249339103688,9.466123580932617,8.999999999999999e-08,0.0,0.0,0.0,8.999999999999999e-08,0.0,0.0,0.0,8.999999999999999e-08
1676469263.2586584,7301,1676469263,255477184,base_link,0.012596419724100102,0.005048976119734293,0.0002977674847295216,-0.9999078920217327,1.0,0.0,0.0,0.0,1.0,0.0,0.0,0.0,1.0,0.14734327793121338,-0.10522472858428955,-0.03314990177750586,1.2184696791468346e-07,0.0,0.0,0.0,1.2184696791468346e-07,0.0,0.0,0.0,1.2184696791468346e-07,0.5015981197357178,-0.6163925528526296,8.444252967834473,8.999999999999999e-08,0.0,0.0,0.0,8.999999999999999e-08,0.0,0.0,0.0,8.999999999999999e-08
1676469263.2776086,7302,1676469263,270476160,base_link,0.011497480491121275,0.005893856784067485,0.00028225744447752857,-0.9999164899788289,1.0,0.0,0.0,0.0,1.0,0.0,0.0,0.0,1.0,0.11375276744365692,-0.13034269213676453,0.016745286062359827,1.2184696791468346e-07,0.0,0.0,0.0,1.2184696791468346e-07,0.0,0.0,0.0,1.2184696791468346e-07,0.8050447106361389,-1.001084804534911,9.26923656463623,8.999999999999999e-08,0.0,0.0,0.0,8.999999999999999e-08,0.0,0.0,0.0,8.999999999999999e-08
1676469263.2969584,7303,1676469263,290476160,base_link,0.010288602356254667,0.006905442886876565,0.00023210269474956244,-0.9999232334745906,1.0,0.0,0.0,0.0,1.0,0.0,0.0,0.0,1.0,0.07863599061965942,-0.09290287643671036,-0.02008141577243804,1.2184696791468346e-07,0.0,0.0,0.0,1.2184696791468346e-07,0.0,0.0,0.0,1.2184696791468346e-07,0.11247372627258301,0.08051477372646447,9.405326843261719,8.999999999999999e-08,0.0,0.0,0.0,8.999999999999999e-08,0.0,0.0,0.0,8.999999999999999e-08
1676469263.31833,7304,1676469263,315476160,base_link,0.009097587241167092,0.007749639488102089,0.00023956268693599904,-0.9999285861243514,1.0,0.0,0.0,0.0,1.0,0.0,0.0,0.0,1.0,0.07870488613843918,-0.03849290311336517,-0.003379371250048275,1.2184696791468346e-07,0.0,0.0,0.0,1.2184696791468346e-07,0.0,0.0,0.0,1.2184696791468346e-07,-0.7997718453407288,0.6289470195770275,9.309430122375488,8.999999999999999e-08,0.0,0.0,0.0,8.999999999999999e-08,0.0,0.0,0.0,8.999999999999999e-08
1676469263.3361614,7305,1676469263,330476160,base_link,0.0084574188620327,0.007934176727231427,0.00021507536795116762,-0.9999327586623541,1.0,0.0,0.0,0.0,1.0,0.0,0.0,0.0,1.0,0.14316530525684357,-0.012656240724027162,-0.04358929023146629,1.2184696791468346e-07,0.0,0.0,0.0,1.2184696791468346e-07,0.0,0.0,0.0,1.2184696791468346e-07,-0.22133387625217438,0.9059377312660228,9.127301216125488,8.999999999999999e-08,0.0,0.0,0.0,8.999999999999999e-08,0.0,0.0,0.0,8.999999999999999e-08
1676469263.3589783,7306,1676469263,350476160,base_link,0.007643189719653732,0.008370155026382331,0.0002279723035954846,-0.9999357932354469,1.0,0.0,0.0,0.0,1.0,0.0,0.0,0.0,1.0,0.0010538569185882807,-0.06024143099784851,0.008363744243979461,1.2184696791468346e-07,0.0,0.0,0.0,1.2184696791468346e-07,0.0,0.0,0.0,1.2184696791468346e-07,0.00018850155174732208,-2.0122816562652575,9.83048152923584,8.999999999999999e-08,0.0,0.0,0.0,8.999999999999999e-08,0.0,0.0,0.0,8.999999999999999e-08
1676469263.3776236,7307,1676469263,370475136,base_link,0.0071524172452956435,0.009036752298926726,0.0002884951780571537,-0.9999336015993243,1.0,0.0,0.0,0.0,1.0,0.0,0.0,0.0,1.0,0.014689907431602478,-0.08447761833667755,0.045821689069271095,1.2184696791468346e-07,0.0,0.0,0.0,1.2184696791468346e-07,0.0,0.0,0.0,1.2184696791468346e-07,-0.4819362163543701,-1.4839969873428334,9.957420349121094,8.999999999999999e-08,0.0,0.0,0.0,8.999999999999999e-08,0.0,0.0,0.0,8.999999999999999e-08
1676469263.399453,7308,1676469263,395475136,base_link,0.00704689997587059,0.00977487137398703,0.0002862192482375811,-0.9999273638657447,1.0,0.0,0.0,0.0,1.0,0.0,0.0,0.0,1.0,-0.03953611105680466,-0.029203098267316815,0.018688742071390155,1.2184696791468346e-07,0.0,0.0,0.0,1.2184696791468346e-07,0.0,0.0,0.0,1.2184696791468346e-07,0.9827178716659546,0.984524428844453,9.471232414245605,8.999999999999999e-08,0.0,0.0,0.0,8.999999999999999e-08,0.0,0.0,0.0,8.999999999999999e-08
1676469263.4181929,7309,1676469263,415475136,base_link,0.007117402186852012,0.01007764272684234,0.0002716364386527679,-0.9999239078241667,1.0,0.0,0.0,0.0,1.0,0.0,0.0,0.0,1.0,-0.03618685528635979,-0.04334720224142074,0.052541971206665046,1.2184696791468346e-07,0.0,0.0,0.0,1.2184696791468346e-07,0.0,0.0,0.0,1.2184696791468346e-07,0.7102166414260864,-0.0928453654050815,9.834187507629395,8.999999999999999e-08,0.0,0.0,0.0,8.999999999999999e-08,0.0,0.0,0.0,8.999999999999999e-08
1676469263.4361653,7310,1676469263,430475136,base_link,0.007113173014021747,0.01012498812569925,0.00032853468414247917,-0.9999234020619846,1.0,0.0,0.0,0.0,1.0,0.0,0.0,0.0,1.0,0.0108174504712224,0.00017840089276433305,0.02576451189815998,1.2184696791468346e-07,0.0,0.0,0.0,1.2184696791468346e-07,0.0,0.0,0.0,1.2184696791468346e-07,-0.9338997602462769,-0.5320309996604907,9.691703796386719,8.999999999999999e-08,0.0,0.0,0.0,8.999999999999999e-08,0.0,0.0,0.0,8.999999999999999e-08
1676469263.4573903,7311,1676469263,450475136,base_link,0.006943807220369735,0.0101714708312507,0.000349650255246462,-0.9999241185584093,1.0,0.0,0.0,0.0,1.0,0.0,0.0,0.0,1.0,-0.007061021402478218,-0.03767018020153046,0.009520376101136213,1.2184696791468346e-07,0.0,0.0,0.0,1.2184696791468346e-07,0.0,0.0,0.0,1.2184696791468346e-07,0.9486258029937744,-0.770001173019408,10.06209945678711,8.999999999999999e-08,0.0,0.0,0.0,8.999999999999999e-08,0.0,0.0,0.0,8.999999999999999e-08
1676469263.4793696,7312,1676469263,475474112,base_link,0.006926398925573466,0.010328889639711144,0.0003578688907060691,-0.9999226434187114,1.0,0.0,0.0,0.0,1.0,0.0,0.0,0.0,1.0,0.039718061685562134,0.010665887966752054,0.01144453417509794,1.2184696791468346e-07,0.0,0.0,0.0,1.2184696791468346e-07,0.0,0.0,0.0,1.2184696791468346e-07,0.4317348301410675,-0.5819737911224354,9.452095031738281,8.999999999999999e-08,0.0,0.0,0.0,8.999999999999999e-08,0.0,0.0,0.0,8.999999999999999e-08
1676469263.496374,7313,1676469263,490474112,base_link,0.007076666434585598,0.010398676095130455,0.00032018960813735473,-0.999920873251074,1.0,0.0,0.0,0.0,1.0,0.0,0.0,0.0,1.0,0.04527655243873596,-0.002559227170422672,0.012235299684107304,1.2184696791468346e-07,0.0,0.0,0.0,1.2184696791468346e-07,0.0,0.0,0.0,1.2184696791468346e-07,-0.009670121595263481,0.09069576859474297,9.39778995513916,8.999999999999999e-08,0.0,0.0,0.0,8.999999999999999e-08,0.0,0.0,0.0,8.999999999999999e-08
1676469263.5167463,7314,1676469263,510474112,base_link,0.007145693588187205,0.01050615072346936,0.0002835218499328497,-0.9999192716708306,1.0,0.0,0.0,0.0,1.0,0.0,0.0,0.0,1.0,0.0651872381567955,-0.008996987715363508,-0.04747150465846062,1.2184696791468346e-07,0.0,0.0,0.0,1.2184696791468346e-07,0.0,0.0,0.0,1.2184696791468346e-07,-0.11543414741754532,-0.44519698619842407,10.197626113891602,8.999999999999999e-08,0.0,0.0,0.0,8.999999999999999e-08,0.0,0.0,0.0,8.999999999999999e-08
1676469263.5386343,7315,1676469263,535474112,base_link,0.006837583332687615,0.010677955436706686,0.00026552514561873687,-0.9999195666987701,1.0,0.0,0.0,0.0,1.0,0.0,0.0,0.0,1.0,0.060367513447999954,-0.02096258848905563,0.03697928786277771,1.2184696791468346e-07,0.0,0.0,0.0,1.2184696791468346e-07,0.0,0.0,0.0,1.2184696791468346e-07,-0.20318683981895447,-2.3256385326385485,10.195479393005371,8.999999999999999e-08,0.0,0.0,0.0,8.999999999999999e-08,0.0,0.0,0.0,8.999999999999999e-08
1676469263.555943,7316,1676469263,550474112,base_link,0.006808432036861126,0.010799750773916185,0.00027492389283665194,-0.9999185130275574,1.0,0.0,0.0,0.0,1.0,0.0,0.0,0.0,1.0,-0.004797753877937794,-0.03899113833904266,0.07516062259674072,1.2184696791468346e-07,0.0,0.0,0.0,1.2184696791468346e-07,0.0,0.0,0.0,1.2184696791468346e-07,-0.45186907052993774,-1.4612461328506456,10.018915176391602,8.999999999999999e-08,0.0,0.0,0.0,8.999999999999999e-08,0.0,0.0,0.0,8.999999999999999e-08
1676469263.580546,7317,1676469263,570472832,base_link,0.006997576391629763,0.010920816443810839,0.00022358903135035743,-0.9999158999229497,1.0,0.0,0.0,0.0,1.0,0.0,0.0,0.0,1.0,0.019360575824975967,-0.013601912185549743,-0.05349576100707054,1.2184696791468346e-07,0.0,0.0,0.0,1.2184696791468346e-07,0.0,0.0,0.0,1.2184696791468346e-07,0.6896767616271973,0.7711840867996227,9.5057954788208,8.999999999999999e-08,0.0,0.0,0.0,8.999999999999999e-08,0.0,0.0,0.0,8.999999999999999e-08
1676469263.5988462,7318,1676469263,595472832,base_link,0.007589111526383336,0.010959900895723487,0.00019345403466507918,-0.999911137329068,1.0,0.0,0.0,0.0,1.0,0.0,0.0,0.0,1.0,-0.07180842012166977,-0.007374814711511129,0.04674531891942024,1.2184696791468346e-07,0.0,0.0,0.0,1.2184696791468346e-07,0.0,0.0,0.0,1.2184696791468346e-07,-0.815057098865509,-1.0949542522430409,9.876331329345703,8.999999999999999e-08,0.0,0.0,0.0,8.999999999999999e-08,0.0,0.0,0.0,8.999999999999999e-08
1676469263.6163886,7319,1676469263,610472832,base_link,0.008086025998413187,0.01080562449701901,0.0002294052964448558,-0.999908903546097,1.0,0.0,0.0,0.0,1.0,0.0,0.0,0.0,1.0,-0.04798967391252518,0.044088482856750495,0.03987597674131393,1.2184696791468346e-07,0.0,0.0,0.0,1.2184696791468346e-07,0.0,0.0,0.0,1.2184696791468346e-07,-1.0284701585769653,-0.34377294778823736,9.56186294555664,8.999999999999999e-08,0.0,0.0,0.0,8.999999999999999e-08,0.0,0.0,0.0,8.999999999999999e-08
1676469263.6367881,7320,1676469263,630472832,base_link,0.008684440042142957,0.010350749448427185,0.00023821398778366818,-0.9999086928118543,1.0,0.0,0.0,0.0,1.0,0.0,0.0,0.0,1.0,-0.06607072800397873,0.0244423970580101,-0.001292147091589871,1.2184696791468346e-07,0.0,0.0,0.0,1.2184696791468346e-07,0.0,0.0,0.0,1.2184696791468346e-07,0.9090366959571838,-0.9997588992118823,9.712916374206543,8.999999999999999e-08,0.0,0.0,0.0,8.999999999999999e-08,0.0,0.0,0.0,8.999999999999999e-08
1676469263.6589177,7321,1676469263,655472832,base_link,0.009515790086379008,0.009887722030416853,0.00022422123407806298,-0.9999058268261556,1.0,0.0,0.0,0.0,1.0,0.0,0.0,0.0,1.0,-0.0005534961819648743,0.05455249920487404,-0.004252992570400245,1.2184696791468346e-07,0.0,0.0,0.0,1.2184696791468346e-07,0.0,0.0,0.0,1.2184696791468346e-07,0.33228978514671326,-0.6829277873039233,9.537141799926758,8.999999999999999e-08,0.0,0.0,0.0,8.999999999999999e-08,0.0,0.0,0.0,8.999999999999999e-08
1676469263.677056,7322,1676469263,670471808,base_link,0.010039178047629767,0.009658495364169847,0.0002610154328280631,-0.9999030029873054,1.0,0.0,0.0,0.0,1.0,0.0,0.0,0.0,1.0,-0.012932066805660725,0.037136200815439224,0.005196180194616313,1.2184696791468346e-07,0.0,0.0,0.0,1.2184696791468346e-07,0.0,0.0,0.0,1.2184696791468346e-07,0.3091193735599518,0.17636930942535511,9.122200965881348,8.999999999999999e-08,0.0,0.0,0.0,8.999999999999999e-08,0.0,0.0,0.0,8.999999999999999e-08
1676469263.6977623,7323,1676469263,690471808,base_link,0.010982284741231757,0.009402641767831576,0.00024255511318024833,-0.9998955008482705,1.0,0.0,0.0,0.0,1.0,0.0,0.0,0.0,1.0,-0.052092812955379486,0.03307057917118072,-0.06455262005329132,1.2184696791468346e-07,0.0,0.0,0.0,1.2184696791468346e-07,0.0,0.0,0.0,1.2184696791468346e-07,-0.13134294748306274,-0.38235214352607605,9.785141944885254,8.999999999999999e-08,0.0,0.0,0.0,8.999999999999999e-08,0.0,0.0,0.0,8.999999999999999e-08
1676469263.7187138,7324,1676469263,715471808,base_link,0.012728585984857441,0.00915377722203846,0.0002585709156144126,-0.9998771248223197,1.0,0.0,0.0,0.0,1.0,0.0,0.0,0.0,1.0,-0.12623488903045654,0.02490313909947873,0.04640727862715721,1.2184696791468346e-07,0.0,0.0,0.0,1.2184696791468346e-07,0.0,0.0,0.0,1.2184696791468346e-07,-0.41120967268943787,-2.377352952957152,10.021191596984863,8.999999999999999e-08,0.0,0.0,0.0,8.999999999999999e-08,0.0,0.0,0.0,8.999999999999999e-08
1676469263.7368658,7325,1676469263,730471808,base_link,0.013634694824820326,0.008885691326100538,0.0003404200954225964,-0.9998675153408593,1.0,0.0,0.0,0.0,1.0,0.0,0.0,0.0,1.0,-0.17986604571342468,0.031745929270982756,0.08726583421230316,1.2184696791468346e-07,0.0,0.0,0.0,1.2184696791468346e-07,0.0,0.0,0.0,1.2184696791468346e-07,-0.5147667527198792,-1.891603112220763,9.716631889343262,8.999999999999999e-08,0.0,0.0,0.0,8.999999999999999e-08,0.0,0.0,0.0,8.999999999999999e-08
1676469263.7570674,7326,1676469263,750471808,base_link,0.014707809893463122,0.008536867214939426,0.00029131901690736993,-0.9998554191953366,1.0,0.0,0.0,0.0,1.0,0.0,0.0,0.0,1.0,-0.04959365352988243,0.011128569953143598,0.013070054352283476,1.2184696791468346e-07,0.0,0.0,0.0,1.2184696791468346e-07,0.0,0.0,0.0,1.2184696791468346e-07,1.2858690023422241,1.0834808349609386,9.511551856994629,8.999999999999999e-08,0.0,0.0,0.0,8.999999999999999e-08,0.0,0.0,0.0,8.999999999999999e-08
1676469263.7800045,7327,1676469263,775470784,base_link,0.015606477509758054,0.008173411891172207,0.0002663259357404084,-0.9998448403363603,1.0,0.0,0.0,0.0,1.0,0.0,0.0,0.0,1.0,-0.10438834875822067,0.028638396412134177,0.05238306149840354,1.2184696791468346e-07,0.0,0.0,0.0,1.2184696791468346e-07,0.0,0.0,0.0,1.2184696791468346e-07,-0.29733511805534363,-0.7003689408302295,9.62749195098877,8.999999999999999e-08,0.0,0.0,0.0,8.999999999999999e-08,0.0,0.0,0.0,8.999999999999999e-08
1676469263.7960918,7328,1676469263,790470784,base_link,0.016157182720380574,0.00813208558911826,0.00022725580717079967,-0.9998364531135067,1.0,0.0,0.0,0.0,1.0,0.0,0.0,0.0,1.0,-0.09951535612344742,0.03149738162755966,0.017520703375339505,1.2184696791468346e-07,0.0,0.0,0.0,1.2184696791468346e-07,0.0,0.0,0.0,1.2184696791468346e-07,-0.7285431027412415,-0.6495546698570239,9.625338554382324,8.999999999999999e-08,0.0,0.0,0.0,8.999999999999999e-08,0.0,0.0,0.0,8.999999999999999e-08
1676469263.8182952,7329,1676469263,815470784,base_link,0.017392991209720498,0.007855352345246015,0.00021406384358691111,-0.9998178663533134,1.0,0.0,0.0,0.0,1.0,0.0,0.0,0.0,1.0,-0.14208495616912842,0.0436776839196682,-0.013711455278098588,1.2184696791468346e-07,0.0,0.0,0.0,1.2184696791468346e-07,0.0,0.0,0.0,1.2184696791468346e-07,0.2493702471256256,-0.29844474792480347,10.067876815795898,8.999999999999999e-08,0.0,0.0,0.0,8.999999999999999e-08,0.0,0.0,0.0,8.999999999999999e-08
1676469263.8358088,7330,1676469263,830470784,base_link,0.018205612083513394,0.007207254328793425,0.00021461175261753705,-0.9998082990187014,1.0,0.0,0.0,0.0,1.0,0.0,0.0,0.0,1.0,-0.1446947306394577,0.08722730726003647,-0.006891877390444289,1.2184696791468346e-07,0.0,0.0,0.0,1.2184696791468346e-07,0.0,0.0,0.0,1.2184696791468346e-07,0.8048771619796753,-1.1093010902404772,10.305744171142578,8.999999999999999e-08,0.0,0.0,0.0,8.999999999999999e-08,0.0,0.0,0.0,8.999999999999999e-08
1676469263.857351,7331,1676469263,850470784,base_link,0.019027320542244198,0.006236161633871822,0.00028520772387332006,-0.9997994903273626,1.0,0.0,0.0,0.0,1.0,0.0,0.0,0.0,1.0,-0.10564696043729782,0.0821380838751793,0.057609423995018,1.2184696791468346e-07,0.0,0.0,0.0,1.2184696791468346e-07,0.0,0.0,0.0,1.2184696791468346e-07,0.06549166142940521,0.22961895167827723,9.587221145629883,8.999999999999999e-08,0.0,0.0,0.0,8.999999999999999e-08,0.0,0.0,0.0,8.999999999999999e-08
1676469263.8802104,7332,1676469263,875469760,base_link,0.020092984509051424,0.0052447999268112715,0.00032297130013906776,-0.9997843174618988,1.0,0.0,0.0,0.0,1.0,0.0,0.0,0.0,1.0,-0.13981318473815918,0.06682027131319046,-0.015015222132205972,1.2184696791468346e-07,0.0,0.0,0.0,1.2184696791468346e-07,0.0,0.0,0.0,1.2184696791468346e-07,-0.060320693999528885,1.0749902725219738,9.530517578125,8.999999999999999e-08,0.0,0.0,0.0,8.999999999999999e-08,0.0,0.0,0.0,8.999999999999999e-08
1676469263.8970323,7333,1676469263,890469760,base_link,0.02067125902695613,0.004899776605277981,0.0002616897824041923,-0.9997742865119531,1.0,0.0,0.0,0.0,1.0,0.0,0.0,0.0,1.0,-0.03541485220193863,0.06139354407787322,-0.06569454073905946,1.2184696791468346e-07,0.0,0.0,0.0,1.2184696791468346e-07,0.0,0.0,0.0,1.2184696791468346e-07,0.24422098696231842,0.24173744022846344,9.866247177124023,8.999999999999999e-08,0.0,0.0,0.0,8.999999999999999e-08,0.0,0.0,0.0,8.999999999999999e-08
1676469263.9182856,7334,1676469263,915469760,base_link,0.02140284863321978,0.0045510384341751605,0.0002542719370662998,-0.9997605466393386,1.0,0.0,0.0,0.0,1.0,0.0,0.0,0.0,1.0,-0.029865887016057968,0.004911756608635188,0.006973961368203162,1.2184696791468346e-07,0.0,0.0,0.0,1.2184696791468346e-07,0.0,0.0,0.0,1.2184696791468346e-07,-0.3786787986755371,-1.3068739175796495,9.973539352416992,8.999999999999999e-08,0.0,0.0,0.0,8.999999999999999e-08,0.0,0.0,0.0,8.999999999999999e-08
1676469263.936584,7335,1676469263,930469760,base_link,0.021903030967734372,0.004349903794913555,0.00030004341454912837,-0.99975059998309,1.0,0.0,0.0,0.0,1.0,0.0,0.0,0.0,1.0,-0.07922361046075821,0.0005972990766167695,0.04402097314596176,1.2184696791468346e-07,0.0,0.0,0.0,1.2184696791468346e-07,0.0,0.0,0.0,1.2184696791468346e-07,-0.0338420569896698,-0.5192003846168506,9.830796241760254,8.999999999999999e-08,0.0,0.0,0.0,8.999999999999999e-08,0.0,0.0,0.0,8.999999999999999e-08
1676469263.9567747,7336,1676469263,950469760,base_link,0.02257916124825826,0.004077932815650788,0.0002993269181244395,-0.9997367336699299,1.0,0.0,0.0,0.0,1.0,0.0,0.0,0.0,1.0,-0.05048854276537895,0.028892423957586285,-0.031068971380591396,1.2184696791468346e-07,0.0,0.0,0.0,1.2184696791468346e-07,0.0,0.0,0.0,1.2184696791468346e-07,0.6182182431221008,-0.19152596592903018,9.856358528137207,8.999999999999999e-08,0.0,0.0,0.0,8.999999999999999e-08,0.0,0.0,0.0,8.999999999999999e-08
1676469263.9780626,7337,1676469263,970468736,base_link,0.02321802186089738,0.003931039194789178,0.0003399143332404237,-0.9997226987693758,1.0,0.0,0.0,0.0,1.0,0.0,0.0,0.0,1.0,-0.05042772740125656,0.026739910244941708,-0.017969010397791866,1.2184696791468346e-07,0.0,0.0,0.0,1.2184696791468346e-07,0.0,0.0,0.0,1.2184696791468346e-07,-1.0065091848373413,-0.5350832939147937,9.545560836791992,8.999999999999999e-08,0.0,0.0,0.0,8.999999999999999e-08,0.0,0.0,0.0,8.999999999999999e-08
1676469263.996887,7338,1676469263,990468736,base_link,0.023705819607394846,0.0038949766389875357,0.0003895211739377643,-0.9997113612671263,1.0,0.0,0.0,0.0,1.0,0.0,0.0,0.0,1.0,-0.015563203021883965,0.01648579351603985,0.0053125889971852285,1.2184696791468346e-07,0.0,0.0,0.0,1.2184696791468346e-07,0.0,0.0,0.0,1.2184696791468346e-07,-0.13727271556854248,-0.2082499414682377,9.394355773925781,8.999999999999999e-08,0.0,0.0,0.0,8.999999999999999e-08,0.0,0.0,0.0,8.999999999999999e-08
1676469264.0170243,7339,1676469264,10468736,base_link,0.02421731837073461,0.0037846500190206827,0.0004292235052350078,-0.9996994758558463,1.0,0.0,0.0,0.0,1.0,0.0,0.0,0.0,1.0,-0.06682783365249634,0.001008916762657464,0.004094200674444437,1.2184696791468346e-07,0.0,0.0,0.0,1.2184696791468346e-07,0.0,0.0,0.0,1.2184696791468346e-07,1.1110702753067017,-1.3042979240417467,10.098716735839844,8.999999999999999e-08,0.0,0.0,0.0,8.999999999999999e-08,0.0,0.0,0.0,8.999999999999999e-08
1676469264.0356083,7340,1676469264,29468736,base_link,0.024764250121326388,0.003646295086249578,0.00047002165459354294,-0.999686578920202,1.0,0.0,0.0,0.0,1.0,0.0,0.0,0.0,1.0,-0.14222709834575653,0.009112709201872354,0.03595373034477234,1.2184696791468346e-07,0.0,0.0,0.0,1.2184696791468346e-07,0.0,0.0,0.0,1.2184696791468346e-07,-0.055234163999557495,-0.9881483912467944,9.669822692871094,8.999999999999999e-08,0.0,0.0,0.0,8.999999999999999e-08,0.0,0.0,0.0,8.999999999999999e-08
1676469264.0562153,7341,1676469264,49468736,base_link,0.025462411349820333,0.003562208172203296,0.00039495811739568984,-0.9996694251528581,1.0,0.0,0.0,0.0,1.0,0.0,0.0,0.0,1.0,-0.04710358381271362,-0.00974619202315807,0.02985929697751999,1.2184696791468346e-07,0.0,0.0,0.0,1.2184696791468346e-07,0.0,0.0,0.0,1.2184696791468346e-07,-0.10374187678098679,0.9590138792991649,9.369400024414062,8.999999999999999e-08,0.0,0.0,0.0,8.999999999999999e-08,0.0,0.0,0.0,8.999999999999999e-08
1676469264.0781078,7342,1676469264,69467968,base_link,0.025890639135759206,0.0034612954459780567,0.0003317378446293079,-0.9996588041470332,1.0,0.0,0.0,0.0,1.0,0.0,0.0,0.0,1.0,0.01512502133846283,0.021923055872321122,-0.05175425112247467,1.2184696791468346e-07,0.0,0.0,0.0,1.2184696791468346e-07,0.0,0.0,0.0,1.2184696791468346e-07,0.560346245765686,0.1399868428707135,9.975136756896973,8.999999999999999e-08,0.0,0.0,0.0,8.999999999999999e-08,0.0,0.0,0.0,8.999999999999999e-08
1676469264.0984645,7343,1676469264,94467968,base_link,0.025989316761924355,0.0033383623084948895,0.0003941151804254637,-0.9996566125109108,1.0,0.0,0.0,0.0,1.0,0.0,0.0,0.0,1.0,-0.01799282617866993,-0.0072063636034727045,0.0428500697016716,1.2184696791468346e-07,0.0,0.0,0.0,1.2184696791468346e-07,0.0,0.0,0.0,1.2184696791468346e-07,-0.4059833586215973,-1.0655072927474964,9.952913284301758,8.999999999999999e-08,0.0,0.0,0.0,8.999999999999999e-08,0.0,0.0,0.0,8.999999999999999e-08
1676469264.116137,7344,1676469264,109467968,base_link,0.02606176324324753,0.003175513471293875,0.00047128606004888737,-0.9996552216649098,1.0,0.0,0.0,0.0,1.0,0.0,0.0,0.0,1.0,-0.021913211792707443,0.015412298031151298,0.02515684626996517,1.2184696791468346e-07,0.0,0.0,0.0,1.2184696791468346e-07,0.0,0.0,0.0,1.2184696791468346e-07,-0.6293153762817383,-0.07218715548515198,9.954766273498535,8.999999999999999e-08,0.0,0.0,0.0,8.999999999999999e-08,0.0,0.0,0.0,8.999999999999999e-08
1676469264.1381645,7345,1676469264,129467968,base_link,0.026501792146769457,0.002966494078638191,0.0004908000509094403,-0.9996443056311455,1.0,0.0,0.0,0.0,1.0,0.0,0.0,0.0,1.0,-0.09487520903348923,0.006472868844866752,-0.00938512571156025,1.2184696791468346e-07,0.0,0.0,0.0,1.2184696791468346e-07,0.0,0.0,0.0,1.2184696791468346e-07,0.47160568833351135,-1.2270905971527086,10.387682914733887,8.999999999999999e-08,0.0,0.0,0.0,8.999999999999999e-08,0.0,0.0,0.0,8.999999999999999e-08
