Time,header.seq,header.stamp.secs,header.stamp.nsecs,header.frame_id,orientation.x,orientation.y,orientation.z,orientation.w,orientation_covariance_0,orientation_covariance_1,orientation_covariance_2,orientation_covariance_3,orientation_covariance_4,orientation_covariance_5,orientation_covariance_6,orientation_covariance_7,orientation_covariance_8,angular_velocity.x,angular_velocity.y,angular_velocity.z,angular_velocity_covariance_0,angular_velocity_covariance_1,angular_velocity_covariance_2,angular_velocity_covariance_3,angular_velocity_covariance_4,angular_velocity_covariance_5,angular_velocity_covariance_6,angular_velocity_covariance_7,angular_velocity_covariance_8,linear_acceleration.x,linear_acceleration.y,linear_acceleration.z,linear_acceleration_covariance_0,linear_acceleration_covariance_1,linear_acceleration_covariance_2,linear_acceleration_covariance_3,linear_acceleration_covariance_4,linear_acceleration_covariance_5,linear_acceleration_covariance_6,linear_acceleration_covariance_7,linear_acceleration_covariance_8
1676104288.8729014,6682,1676104288,422251840,base_link,0.051720510418499725,-0.018287433275179843,0.0394196523842997,-0.9977157501369841,1.0,0.0,0.0,0.0,1.0,0.0,0.0,0.0,1.0,0.0003909016086254269,0.00020451052114367485,-0.00010989792644977572,1.2184696791468346e-07,0.0,0.0,0.0,1.2184696791468346e-07,0.0,0.0,0.0,1.2184696791468346e-07,-0.3154877722263336,-1.052560806274413,9.715507507324219,8.999999999999999e-08,0.0,0.0,0.0,8.999999999999999e-08,0.0,0.0,0.0,8.999999999999999e-08
1676104288.872925,6683,1676104288,436251840,base_link,0.05171302408453298,-0.018287064490255373,0.039419694531148214,-0.9977161294586206,1.0,0.0,0.0,0.0,1.0,0.0,0.0,0.0,1.0,-0.0005429309094324708,0.0012497492134571075,-0.00025272648781538026,1.2184696791468346e-07,0.0,0.0,0.0,1.2184696791468346e-07,0.0,0.0,0.0,1.2184696791468346e-07,-0.32456982135772705,-1.044624090194701,9.739819526672363,8.999999999999999e-08,0.0,0.0,0.0,8.999999999999999e-08,0.0,0.0,0.0,8.999999999999999e-08
1676104288.874121,6684,1676104288,456251840,base_link,0.05172311562057331,-0.018289100709874054,0.03942917757206315,-0.9977152443748019,1.0,0.0,0.0,0.0,1.0,0.0,0.0,0.0,1.0,-0.000510105979628861,0.0016482188366353512,0.0005033123306930063,1.2184696791468346e-07,0.0,0.0,0.0,1.2184696791468346e-07,0.0,0.0,0.0,1.2184696791468346e-07,-0.3345319926738739,-1.0436792373657215,9.733440399169922,8.999999999999999e-08,0.0,0.0,0.0,8.999999999999999e-08,0.0,0.0,0.0,8.999999999999999e-08
1676104288.8757467,6685,1676104288,476251840,base_link,0.05173076527357804,-0.018291935085436417,0.039428081754001865,-0.9977148229063167,1.0,0.0,0.0,0.0,1.0,0.0,0.0,0.0,1.0,0.0013410600367933512,0.0012233713641762733,0.0008602244779467582,1.2184696791468346e-07,0.0,0.0,0.0,1.2184696791468346e-07,0.0,0.0,0.0,1.2184696791468346e-07,-0.3188413977622986,-1.02282953262329,9.734526634216309,8.999999999999999e-08,0.0,0.0,0.0,8.999999999999999e-08,0.0,0.0,0.0,8.999999999999999e-08
1676104288.875858,6686,1676104288,496254400,base_link,0.05173126708449312,-0.018291480689725907,0.03942964118739677,-0.9977146964657713,1.0,0.0,0.0,0.0,1.0,0.0,0.0,0.0,1.0,-0.0007137629436329007,-0.000597391277551651,0.00012684101238846787,1.2184696791468346e-07,0.0,0.0,0.0,1.2184696791468346e-07,0.0,0.0,0.0,1.2184696791468346e-07,-0.3176657557487488,-1.053214907646178,9.741141319274902,8.999999999999999e-08,0.0,0.0,0.0,8.999999999999999e-08,0.0,0.0,0.0,8.999999999999999e-08
1676104288.875973,6687,1676104288,516254400,base_link,0.05173712549643613,-0.01829033745646005,0.03942656446745547,-0.9977145700252257,1.0,0.0,0.0,0.0,1.0,0.0,0.0,0.0,1.0,0.001640671631321311,-0.001098131528124213,0.0009438050910830499,1.2184696791468346e-07,0.0,0.0,0.0,1.2184696791468346e-07,0.0,0.0,0.0,1.2184696791468346e-07,-0.3317839801311493,-1.0222492218017567,9.748805046081543,8.999999999999999e-08,0.0,0.0,0.0,8.999999999999999e-08,0.0,0.0,0.0,8.999999999999999e-08
1676104288.876017,6688,1676104288,536254400,base_link,0.05175384594149381,-0.018288415823585754,0.03942222334205883,-0.997713853528801,1.0,0.0,0.0,0.0,1.0,0.0,0.0,0.0,1.0,0.0014737710589542985,0.0007756035774946213,0.0001373109407722949,1.2184696791468346e-07,0.0,0.0,0.0,1.2184696791468346e-07,0.0,0.0,0.0,1.2184696791468346e-07,-0.30944469571113586,-1.012889266014098,9.753278732299805,8.999999999999999e-08,0.0,0.0,0.0,8.999999999999999e-08,0.0,0.0,0.0,8.999999999999999e-08
1676104288.8775795,6689,1676104288,562254400,base_link,0.05175758120594309,-0.018292778022406635,0.03942374062860523,-0.99771360064771,1.0,0.0,0.0,0.0,1.0,0.0,0.0,0.0,1.0,0.001216161297634244,-0.0005201692692935465,0.0014817062765359879,1.2184696791468346e-07,0.0,0.0,0.0,1.2184696791468346e-07,0.0,0.0,0.0,1.2184696791468346e-07,-0.32241156697273254,-1.0276814699172963,9.743302345275879,8.999999999999999e-08,0.0,0.0,0.0,8.999999999999999e-08,0.0,0.0,0.0,8.999999999999999e-08
1676104288.8776498,6690,1676104288,577254400,base_link,0.05174231746133707,-0.018291852108828412,0.03942298198533203,-0.9977144435846802,1.0,0.0,0.0,0.0,1.0,0.0,0.0,0.0,1.0,0.0012854140950366855,3.6267796531319686e-05,0.0005513443611562252,1.2184696791468346e-07,0.0,0.0,0.0,1.2184696791468346e-07,0.0,0.0,0.0,1.2184696791468346e-07,-0.31053870916366577,-1.036786913871764,9.731207847595215,8.999999999999999e-08,0.0,0.0,0.0,8.999999999999999e-08,0.0,0.0,0.0,8.999999999999999e-08
1676104288.8776813,6691,1676104288,597256960,base_link,0.05174900037100408,-0.01829593245059987,0.03941969453114822,-0.9977141064098921,1.0,0.0,0.0,0.0,1.0,0.0,0.0,0.0,1.0,0.0018426957540214062,-0.0002377387136220932,4.401244223117831e-05,1.2184696791468346e-07,0.0,0.0,0.0,1.2184696791468346e-07,0.0,0.0,0.0,1.2184696791468346e-07,-0.33917567133903503,-1.0315078496932972,9.743891716003418,8.999999999999999e-08,0.0,0.0,0.0,8.999999999999999e-08,0.0,0.0,0.0,8.999999999999999e-08
1676104288.877706,6692,1676104288,617256960,base_link,0.051746853515908055,-0.018297404956119718,0.03942576367733376,-0.9977139378224981,1.0,0.0,0.0,0.0,1.0,0.0,0.0,0.0,1.0,0.001626238925382495,0.0015153260901570318,-0.001819584518671036,1.2184696791468346e-07,0.0,0.0,0.0,1.2184696791468346e-07,0.0,0.0,0.0,1.2184696791468346e-07,-0.31508567929267883,-1.0391106605529774,9.730116844177246,8.999999999999999e-08,0.0,0.0,0.0,8.999999999999999e-08,0.0,0.0,0.0,8.999999999999999e-08
1676104288.8777535,6693,1676104288,637256960,base_link,0.051744647391806314,-0.01830445269944415,0.03943478310291513,-0.99771360064771,1.0,0.0,0.0,0.0,1.0,0.0,0.0,0.0,1.0,0.0002417433715891093,-1.4643184840679267e-05,-0.0007958156056702137,1.2184696791468346e-07,0.0,0.0,0.0,1.2184696791468346e-07,0.0,0.0,0.0,1.2184696791468346e-07,-0.3243047893047333,-1.045294404029845,9.730530738830566,8.999999999999999e-08,0.0,0.0,0.0,8.999999999999999e-08,0.0,0.0,0.0,8.999999999999999e-08
1676104288.8778546,6694,1676104288,662256960,base_link,0.051745037250155036,-0.018314267646791126,0.03944721642322584,-0.9977128841512853,1.0,0.0,0.0,0.0,1.0,0.0,0.0,0.0,1.0,0.0005186322377994657,0.0006711606401950118,-0.002379373647272587,1.2184696791468346e-07,0.0,0.0,0.0,1.2184696791468346e-07,0.0,0.0,0.0,1.2184696791468346e-07,-0.33894050121307373,-1.0368109941482533,9.75775146484375,8.999999999999999e-08,0.0,0.0,0.0,8.999999999999999e-08,0.0,0.0,0.0,8.999999999999999e-08
1676104288.877867,6695,1676104288,677256960,base_link,0.0517508008316889,-0.018311812592865365,0.039450040262076026,-0.9977125048296487,1.0,0.0,0.0,0.0,1.0,0.0,0.0,0.0,1.0,0.0013872137060388923,0.0003749623429030181,0.0006892234086990356,1.2184696791468346e-07,0.0,0.0,0.0,1.2184696791468346e-07,0.0,0.0,0.0,1.2184696791468346e-07,-0.31144633889198303,-1.0293785333633412,9.745216369628906,8.999999999999999e-08,0.0,0.0,0.0,8.999999999999999e-08,0.0,0.0,0.0,8.999999999999999e-08
1676104288.8779037,6696,1676104288,697259008,base_link,0.05175028058152759,-0.018310657505798366,0.03945113608013731,-0.9977125048296487,1.0,0.0,0.0,0.0,1.0,0.0,0.0,0.0,1.0,-0.0001466531539335847,-0.0002427869476377962,0.001522062812000513,1.2184696791468346e-07,0.0,0.0,0.0,1.2184696791468346e-07,0.0,0.0,0.0,1.2184696791468346e-07,-0.32892510294914246,-1.0228670835494984,9.743942260742188,8.999999999999999e-08,0.0,0.0,0.0,8.999999999999999e-08,0.0,0.0,0.0,8.999999999999999e-08
1676104288.8779438,6697,1676104288,722259008,base_link,0.05174560754969895,-0.018311595273177727,0.03944144230497982,-0.9977131791792249,1.0,0.0,0.0,0.0,1.0,0.0,0.0,0.0,1.0,0.001203418942168355,0.0005532724317163229,0.0002119773998856544,1.2184696791468346e-07,0.0,0.0,0.0,1.2184696791468346e-07,0.0,0.0,0.0,1.2184696791468346e-07,-0.3374027609825134,-1.0183161497116078,9.73704719543457,8.999999999999999e-08,0.0,0.0,0.0,8.999999999999999e-08,0.0,0.0,0.0,8.999999999999999e-08
1676104288.8779802,6698,1676104288,737259008,base_link,0.05174909915268028,-0.018307956156226622,0.03944607845831604,-0.9977128420044368,1.0,0.0,0.0,0.0,1.0,0.0,0.0,0.0,1.0,-0.0008533106883987784,-0.0002161136362701653,0.0012134131975471973,1.2184696791468346e-07,0.0,0.0,0.0,1.2184696791468346e-07,0.0,0.0,0.0,1.2184696791468346e-07,-0.3324087858200073,-1.0277429819107045,9.721816062927246,8.999999999999999e-08,0.0,0.0,0.0,8.999999999999999e-08,0.0,0.0,0.0,8.999999999999999e-08
1676104288.878011,6699,1676104288,757259008,base_link,0.05175596382063148,-0.018305553785861493,0.03944224309510153,-0.9977127155638912,1.0,0.0,0.0,0.0,1.0,0.0,0.0,0.0,1.0,-0.00024338223738595843,-0.00037475186400115506,-0.0014036907814443111,1.2184696791468346e-07,0.0,0.0,0.0,1.2184696791468346e-07,0.0,0.0,0.0,1.2184696791468346e-07,-0.31296977400779724,-1.0277774333953846,9.738237380981445,8.999999999999999e-08,0.0,0.0,0.0,8.999999999999999e-08,0.0,0.0,0.0,8.999999999999999e-08
1676104288.8784647,6700,1676104288,777259008,base_link,0.051760302311850075,-0.01830540890606974,0.03944043078061556,-0.9977125048296487,1.0,0.0,0.0,0.0,1.0,0.0,0.0,0.0,1.0,-0.0005901750409975648,0.0006823719013482332,-0.0001633525826036931,1.2184696791468346e-07,0.0,0.0,0.0,1.2184696791468346e-07,0.0,0.0,0.0,1.2184696791468346e-07,-0.32143545150756836,-1.0298401117324818,9.749351501464844,8.999999999999999e-08,0.0,0.0,0.0,8.999999999999999e-08,0.0,0.0,0.0,8.999999999999999e-08
1676104288.8798172,6701,1676104288,797259520,base_link,0.05176539022671875,-0.018303181708543743,0.03943722762012872,-0.9977124205359517,1.0,0.0,0.0,0.0,1.0,0.0,0.0,0.0,1.0,0.0014602597802877426,0.0006990898400545117,-0.002405451610684395,1.2184696791468346e-07,0.0,0.0,0.0,1.2184696791468346e-07,0.0,0.0,0.0,1.2184696791468346e-07,-0.32017308473587036,-1.0136138200759877,9.748329162597656,8.999999999999999e-08,0.0,0.0,0.0,8.999999999999999e-08,0.0,0.0,0.0,8.999999999999999e-08
1676104288.8799298,6702,1676104288,822259520,base_link,0.051769665497664576,-0.01829820047788536,0.03944776433225643,-0.9977119147737695,1.0,0.0,0.0,0.0,1.0,0.0,0.0,0.0,1.0,-0.00026211701333522797,-0.000695571885444224,-0.0009259437210857867,1.2184696791468346e-07,0.0,0.0,0.0,1.2184696791468346e-07,0.0,0.0,0.0,1.2184696791468346e-07,-0.3091892898082733,-1.0319666862487782,9.760371208190918,8.999999999999999e-08,0.0,0.0,0.0,8.999999999999999e-08,0.0,0.0,0.0,8.999999999999999e-08
1676104288.880258,6703,1676104288,837259520,base_link,0.0517723075782306,-0.018297154709206686,0.0394514732549254,-0.9977116618926785,1.0,0.0,0.0,0.0,1.0,0.0,0.0,0.0,1.0,0.0005293162539601326,-0.0002696728333830834,-0.0006429213099181652,1.2184696791468346e-07,0.0,0.0,0.0,1.2184696791468346e-07,0.0,0.0,0.0,1.2184696791468346e-07,-0.3031744658946991,-1.0257959365844715,9.748106956481934,8.999999999999999e-08,0.0,0.0,0.0,8.999999999999999e-08,0.0,0.0,0.0,8.999999999999999e-08
1676104288.8804479,6704,1676104288,857259520,base_link,0.051778051403429226,-0.018292764851516475,0.03945084105219774,-0.997711451158436,1.0,0.0,0.0,0.0,1.0,0.0,0.0,0.0,1.0,0.0014628401258960366,0.00010348437353968634,0.0011007068678736687,1.2184696791468346e-07,0.0,0.0,0.0,1.2184696791468346e-07,0.0,0.0,0.0,1.2184696791468346e-07,-0.29993605613708496,-1.0385234355926503,9.751102447509766,8.999999999999999e-08,0.0,0.0,0.0,8.999999999999999e-08,0.0,0.0,0.0,8.999999999999999e-08
1676104288.8866954,6705,1676104288,882259520,base_link,0.05177784857172077,-0.018290786583814493,0.03944734286377138,-0.9977116618926785,1.0,0.0,0.0,0.0,1.0,0.0,0.0,0.0,1.0,0.0013087233528494835,-0.0003086600918322801,0.0006264597177505493,1.2184696791468346e-07,0.0,0.0,0.0,1.2184696791468346e-07,0.0,0.0,0.0,1.2184696791468346e-07,-0.3168969452381134,-1.0444229841232289,9.74695873260498,8.999999999999999e-08,0.0,0.0,0.0,8.999999999999999e-08,0.0,0.0,0.0,8.999999999999999e-08
1676104288.9130387,6706,1676104288,897261824,base_link,0.051779224929742455,-0.018282961757970645,0.03945176828286498,-0.997711535452133,1.0,0.0,0.0,0.0,1.0,0.0,0.0,0.0,1.0,0.0008660705061629415,0.0014810925349593163,-0.0005516177043318751,1.2184696791468346e-07,0.0,0.0,0.0,1.2184696791468346e-07,0.0,0.0,0.0,1.2184696791468346e-07,-0.31500986218452454,-1.0349878072738636,9.736355781555176,8.999999999999999e-08,0.0,0.0,0.0,8.999999999999999e-08,0.0,0.0,0.0,8.999999999999999e-08
1676104288.9481907,6707,1676104288,917261824,base_link,0.05177095756198924,-0.018287604496751923,0.0394583431912327,-0.99771161974583,1.0,0.0,0.0,0.0,1.0,0.0,0.0,0.0,1.0,0.0014195481780916452,0.001434057019650936,-0.0017997371032834055,1.2184696791468346e-07,0.0,0.0,0.0,1.2184696791468346e-07,0.0,0.0,0.0,1.2184696791468346e-07,-0.31930121779441833,-1.0231671333312977,9.741312980651855,8.999999999999999e-08,0.0,0.0,0.0,8.999999999999999e-08,0.0,0.0,0.0,8.999999999999999e-08
1676104288.9488208,6708,1676104288,942261824,base_link,0.05178017981927903,-0.018289983159514755,0.03945632014250418,-0.9977111982773449,1.0,0.0,0.0,0.0,1.0,0.0,0.0,0.0,1.0,0.0001454899029340595,-0.001242279657162726,-0.00023518782109022124,1.2184696791468346e-07,0.0,0.0,0.0,1.2184696791468346e-07,0.0,0.0,0.0,1.2184696791468346e-07,-0.3403102457523346,-1.0401477813720692,9.73885726928711,8.999999999999999e-08,0.0,0.0,0.0,8.999999999999999e-08,0.0,0.0,0.0,8.999999999999999e-08
1676104288.9647543,6709,1676104288,957261824,base_link,0.05177846496938024,-0.018294416481142498,0.039452948394623294,-0.9977112825710418,1.0,0.0,0.0,0.0,1.0,0.0,0.0,0.0,1.0,0.0013285188470035791,-0.000252648489549756,0.00024660769850015646,1.2184696791468346e-07,0.0,0.0,0.0,1.2184696791468346e-07,0.0,0.0,0.0,1.2184696791468346e-07,-0.32261526584625244,-1.0154266357421864,9.754023551940918,8.999999999999999e-08,0.0,0.0,0.0,8.999999999999999e-08,0.0,0.0,0.0,8.999999999999999e-08
1676104288.9876447,6710,1676104288,982261824,base_link,0.05177266714353196,-0.01829857584825491,0.03944953449989389,-0.9977116618926785,1.0,0.0,0.0,0.0,1.0,0.0,0.0,0.0,1.0,0.0008248614612966776,0.001190402079373598,0.0005044736899435519,1.2184696791468346e-07,0.0,0.0,0.0,1.2184696791468346e-07,0.0,0.0,0.0,1.2184696791468346e-07,-0.3144018352031708,-1.0603116750717152,9.736231803894043,8.999999999999999e-08,0.0,0.0,0.0,8.999999999999999e-08,0.0,0.0,0.0,8.999999999999999e-08
1676104289.0043318,6711,1676104288,997264384,base_link,0.05176537573873958,-0.018293202125069772,0.03944843868183261,-0.9977121676548606,1.0,0.0,0.0,0.0,1.0,0.0,0.0,0.0,1.0,0.0007166631985455751,0.0008835345506668091,8.818646892905224e-05,1.2184696791468346e-07,0.0,0.0,0.0,1.2184696791468346e-07,0.0,0.0,0.0,1.2184696791468346e-07,-0.3438415229320526,-1.050382375717162,9.74250316619873,8.999999999999999e-08,0.0,0.0,0.0,8.999999999999999e-08,0.0,0.0,0.0,8.999999999999999e-08
1676104289.0259652,6712,1676104289,17264384,base_link,0.05176261775434014,-0.01829620772220421,0.03945463426856373,-0.997712041214315,1.0,0.0,0.0,0.0,1.0,0.0,0.0,0.0,1.0,0.002074031624943018,-0.0004811957478523256,-0.0015215100720524788,1.2184696791468346e-07,0.0,0.0,0.0,1.2184696791468346e-07,0.0,0.0,0.0,1.2184696791468346e-07,-0.33265742659568787,-1.0362689495086659,9.749942779541016,8.999999999999999e-08,0.0,0.0,0.0,8.999999999999999e-08,0.0,0.0,0.0,8.999999999999999e-08
1676104289.0465844,6713,1676104289,42264384,base_link,0.05176215150482849,-0.01829297558575903,0.03945404421268458,-0.997712125508012,1.0,0.0,0.0,0.0,1.0,0.0,0.0,0.0,1.0,0.0009283408289775252,-0.0008265244541689755,-0.0008721021004021167,1.2184696791468346e-07,0.0,0.0,0.0,1.2184696791468346e-07,0.0,0.0,0.0,1.2184696791468346e-07,-0.2990262508392334,-1.0441879034042347,9.734498977661133,8.999999999999999e-08,0.0,0.0,0.0,8.999999999999999e-08,0.0,0.0,0.0,8.999999999999999e-08
1676104289.0637102,6714,1676104289,57264384,base_link,0.051751409326814275,-0.018288787242688256,0.03945509788389735,-0.9977127577107398,1.0,0.0,0.0,0.0,1.0,0.0,0.0,0.0,1.0,0.001683021429926157,0.0004828232340514661,0.0009933337569236755,1.2184696791468346e-07,0.0,0.0,0.0,1.2184696791468346e-07,0.0,0.0,0.0,1.2184696791468346e-07,-0.34092146158218384,-1.049779176712035,9.757808685302734,8.999999999999999e-08,0.0,0.0,0.0,8.999999999999999e-08,0.0,0.0,0.0,8.999999999999999e-08
1676104289.085629,6715,1676104289,77264384,base_link,0.05175099180959622,-0.01828889392689855,0.03945046173056113,-0.9977129262981338,1.0,0.0,0.0,0.0,1.0,0.0,0.0,0.0,1.0,0.0015389341861009598,-0.0014005003031343222,8.77636484801771e-05,1.2184696791468346e-07,0.0,0.0,0.0,1.2184696791468346e-07,0.0,0.0,0.0,1.2184696791468346e-07,-0.3366168141365051,-1.0339597463607777,9.755813598632812,8.999999999999999e-08,0.0,0.0,0.0,8.999999999999999e-08,0.0,0.0,0.0,8.999999999999999e-08
1676104289.105381,6716,1676104289,102266944,base_link,0.05174574979531268,-0.018288045721572267,0.03944856512237819,-0.9977133056197705,1.0,0.0,0.0,0.0,1.0,0.0,0.0,0.0,1.0,0.0001655064697843045,0.0004386554937809706,-0.0002041305415332318,1.2184696791468346e-07,0.0,0.0,0.0,1.2184696791468346e-07,0.0,0.0,0.0,1.2184696791468346e-07,-0.32308173179626465,-1.0342952013015736,9.739824295043945,8.999999999999999e-08,0.0,0.0,0.0,8.999999999999999e-08,0.0,0.0,0.0,8.999999999999999e-08
1676104289.1235766,6717,1676104289,117266944,base_link,0.05174870929433155,-0.018291908743656098,0.03945138896122838,-0.9977129262981338,1.0,0.0,0.0,0.0,1.0,0.0,0.0,0.0,1.0,0.0009650109568610787,0.0012395109515637162,0.0014881100505590437,1.2184696791468346e-07,0.0,0.0,0.0,1.2184696791468346e-07,0.0,0.0,0.0,1.2184696791468346e-07,-0.3262181878089905,-1.044811964035033,9.750797271728516,8.999999999999999e-08,0.0,0.0,0.0,8.999999999999999e-08,0.0,0.0,0.0,8.999999999999999e-08
1676104289.1452048,6718,1676104289,137266944,base_link,0.05175492200321986,-0.018294984146508375,0.03945379133159351,-0.9977124626828001,1.0,0.0,0.0,0.0,1.0,0.0,0.0,0.0,1.0,0.0014289033133536577,-0.0010013863211497664,-0.0006685629487037658,1.2184696791468346e-07,0.0,0.0,0.0,1.2184696791468346e-07,0.0,0.0,0.0,1.2184696791468346e-07,-0.30888432264328003,-1.051280379295348,9.72231388092041,8.999999999999999e-08,0.0,0.0,0.0,8.999999999999999e-08,0.0,0.0,0.0,8.999999999999999e-08
1676104289.1640208,6719,1676104289,157266944,base_link,0.051760017820622624,-0.018291848157561363,0.039444898346557726,-0.9977126734170427,1.0,0.0,0.0,0.0,1.0,0.0,0.0,0.0,1.0,-8.19470442365855e-05,-3.701471723616104e-05,0.0015422534197568893,1.2184696791468346e-07,0.0,0.0,0.0,1.2184696791468346e-07,0.0,0.0,0.0,1.2184696791468346e-07,-0.31611260771751404,-1.0335563421249379,9.74125862121582,8.999999999999999e-08,0.0,0.0,0.0,8.999999999999999e-08,0.0,0.0,0.0,8.999999999999999e-08
1676104289.1871564,6720,1676104289,177266944,base_link,0.05176943632417579,-0.018286043746268,0.03944730071692286,-0.9977121255080121,1.0,0.0,0.0,0.0,1.0,0.0,0.0,0.0,1.0,0.0004501383227761835,0.0007258548866957427,0.000602083746343851,1.2184696791468346e-07,0.0,0.0,0.0,1.2184696791468346e-07,0.0,0.0,0.0,1.2184696791468346e-07,-0.3252390921115875,-1.0281434059143055,9.756448745727539,8.999999999999999e-08,0.0,0.0,0.0,8.999999999999999e-08,0.0,0.0,0.0,8.999999999999999e-08
1676104289.2066896,6721,1676104289,202269504,base_link,0.051775485714026126,-0.01828280239019971,0.03943984072473641,-0.9977121676548606,1.0,0.0,0.0,0.0,1.0,0.0,0.0,0.0,1.0,-0.00010971687152050436,-0.0013915107119828463,0.0005922988057136538,1.2184696791468346e-07,0.0,0.0,0.0,1.2184696791468346e-07,0.0,0.0,0.0,1.2184696791468346e-07,-0.3078923225402832,-1.0349297523498524,9.754395484924316,8.999999999999999e-08,0.0,0.0,0.0,8.999999999999999e-08,0.0,0.0,0.0,8.999999999999999e-08
1676104289.225203,6722,1676104289,217269504,base_link,0.051777366517140926,-0.01828384025634429,0.03943769123546234,-0.9977121255080121,1.0,0.0,0.0,0.0,1.0,0.0,0.0,0.0,1.0,0.0009533663978800178,-0.0003050735685974359,0.0006181644275784492,1.2184696791468346e-07,0.0,0.0,0.0,1.2184696791468346e-07,0.0,0.0,0.0,1.2184696791468346e-07,-0.335736483335495,-1.0590451955795277,9.730535507202148,8.999999999999999e-08,0.0,0.0,0.0,8.999999999999999e-08,0.0,0.0,0.0,8.999999999999999e-08
1676104289.2451582,6723,1676104289,237269504,base_link,0.051780980609400735,-0.018276691097165634,0.03943469880921805,-0.9977122519485576,1.0,0.0,0.0,0.0,1.0,0.0,0.0,0.0,1.0,0.00023792064166627824,0.00023879669606685638,3.3683143556117984e-05,1.2184696791468346e-07,0.0,0.0,0.0,1.2184696791468346e-07,0.0,0.0,0.0,1.2184696791468346e-07,-0.3302649259567261,-1.0299800634384144,9.757776260375977,8.999999999999999e-08,0.0,0.0,0.0,8.999999999999999e-08,0.0,0.0,0.0,8.999999999999999e-08
1676104289.265331,6724,1676104289,257269504,base_link,0.05178048538393073,-0.018271185665078897,0.0394344880749755,-0.9977123783891032,1.0,0.0,0.0,0.0,1.0,0.0,0.0,0.0,1.0,0.00016383620095439255,-0.0004048177506774664,-6.219698116183276e-05,1.2184696791468346e-07,0.0,0.0,0.0,1.2184696791468346e-07,0.0,0.0,0.0,1.2184696791468346e-07,-0.3206424117088318,-1.0244096517562855,9.750731468200684,8.999999999999999e-08,0.0,0.0,0.0,8.999999999999999e-08,0.0,0.0,0.0,8.999999999999999e-08
1676104289.284059,6725,1676104289,277269504,base_link,0.0517844182117324,-0.018275940356426528,0.03942812390085038,-0.9977123362422546,1.0,0.0,0.0,0.0,1.0,0.0,0.0,0.0,1.0,-0.0001821360201574862,0.0008293080609291792,6.170663982629767e-05,1.2184696791468346e-07,0.0,0.0,0.0,1.2184696791468346e-07,0.0,0.0,0.0,1.2184696791468346e-07,-0.3098956048488617,-1.0250144004821766,9.760444641113281,8.999999999999999e-08,0.0,0.0,0.0,8.999999999999999e-08,0.0,0.0,0.0,8.999999999999999e-08
1676104289.3050244,6726,1676104289,297272064,base_link,0.05178776361783296,-0.01828421694380286,0.0394232348664231,-0.9977121676548606,1.0,0.0,0.0,0.0,1.0,0.0,0.0,0.0,1.0,-7.362017640843987e-05,-0.0016535136383026838,-0.0001712036319077013,1.2184696791468346e-07,0.0,0.0,0.0,1.2184696791468346e-07,0.0,0.0,0.0,1.2184696791468346e-07,-0.3310006260871887,-1.052464723587035,9.731799125671387,8.999999999999999e-08,0.0,0.0,0.0,8.999999999999999e-08,0.0,0.0,0.0,8.999999999999999e-08
1676104289.3252258,6727,1676104289,317272064,base_link,0.051796688213005135,-0.01827563479177483,0.039419230915814604,-0.9977120412143151,1.0,0.0,0.0,0.0,1.0,0.0,0.0,0.0,1.0,0.0002590589865576476,0.0016827965155243876,0.0011372244916856287,1.2184696791468346e-07,0.0,0.0,0.0,1.2184696791468346e-07,0.0,0.0,0.0,1.2184696791468346e-07,-0.3240545392036438,-1.051357626914977,9.732808113098145,8.999999999999999e-08,0.0,0.0,0.0,8.999999999999999e-08,0.0,0.0,0.0,8.999999999999999e-08
1676104289.3446248,6728,1676104289,337272064,base_link,0.05179562268799122,-0.018281768475322178,0.03941952594375418,-0.9977119990674665,1.0,0.0,0.0,0.0,1.0,0.0,0.0,0.0,1.0,-0.00046907487558200955,0.0021435883827507496,0.0015336694195866583,1.2184696791468346e-07,0.0,0.0,0.0,1.2184696791468346e-07,0.0,0.0,0.0,1.2184696791468346e-07,-0.32198283076286316,-1.0260121822357167,9.767643928527832,8.999999999999999e-08,0.0,0.0,0.0,8.999999999999999e-08,0.0,0.0,0.0,8.999999999999999e-08
1676104289.3639896,6729,1676104289,357272064,base_link,0.051798611162968446,-0.018279875818406233,0.03940936855326302,-0.9977122940954062,1.0,0.0,0.0,0.0,1.0,0.0,0.0,0.0,1.0,0.0009641123469918966,-0.001245575724169612,-0.0004158546216785906,1.2184696791468346e-07,0.0,0.0,0.0,1.2184696791468346e-07,0.0,0.0,0.0,1.2184696791468346e-07,-0.3083476126194,-1.0298633575439442,9.75794792175293,8.999999999999999e-08,0.0,0.0,0.0,8.999999999999999e-08,0.0,0.0,0.0,8.999999999999999e-08
1676104289.3887284,6730,1676104289,377272064,base_link,0.05180196315451408,-0.018276829391512307,0.03941400470659923,-0.997711956920618,1.0,0.0,0.0,0.0,1.0,0.0,0.0,0.0,1.0,0.0015313285402953625,0.000397191848605871,-0.0015608547255396843,1.2184696791468346e-07,0.0,0.0,0.0,1.2184696791468346e-07,0.0,0.0,0.0,1.2184696791468346e-07,-0.3145795166492462,-1.053633928298949,9.751092910766602,8.999999999999999e-08,0.0,0.0,0.0,8.999999999999999e-08,0.0,0.0,0.0,8.999999999999999e-08
1676104289.4037273,6731,1676104289,398274624,base_link,0.05179674748201085,-0.01827561766961762,0.03941552199314563,-0.9977122098017092,1.0,0.0,0.0,0.0,1.0,0.0,0.0,0.0,1.0,0.0030752390157431364,0.0012290212325751781,2.0953360944986194e-05,1.2184696791468346e-07,0.0,0.0,0.0,1.2184696791468346e-07,0.0,0.0,0.0,1.2184696791468346e-07,-0.3209308683872223,-1.020599603652953,9.73666763305664,8.999999999999999e-08,0.0,0.0,0.0,8.999999999999999e-08,0.0,0.0,0.0,8.999999999999999e-08
1676104289.4247403,6732,1676104289,418274624,base_link,0.0517941277919581,-0.01828070295030826,0.03941269815429539,-0.9977123362422546,1.0,0.0,0.0,0.0,1.0,0.0,0.0,0.0,1.0,-0.0004587755538523197,-0.0006971515249460938,-0.0018637068569660187,1.2184696791468346e-07,0.0,0.0,0.0,1.2184696791468346e-07,0.0,0.0,0.0,1.2184696791468346e-07,-0.31181883811950684,-1.0284528732299794,9.76164722442627,8.999999999999999e-08,0.0,0.0,0.0,8.999999999999999e-08,0.0,0.0,0.0,8.999999999999999e-08
1676104289.4444587,6733,1676104289,438274624,base_link,0.05178850382185993,-0.018275479375270944,0.03941193951102219,-0.9977127577107398,1.0,0.0,0.0,0.0,1.0,0.0,0.0,0.0,1.0,0.0014799971831962466,0.0008593902457505465,-0.00013389391824603092,1.2184696791468346e-07,0.0,0.0,0.0,1.2184696791468346e-07,0.0,0.0,0.0,1.2184696791468346e-07,-0.3145117163658142,-1.0391070842742909,9.760699272155762,8.999999999999999e-08,0.0,0.0,0.0,8.999999999999999e-08,0.0,0.0,0.0,8.999999999999999e-08
1676104289.4644356,6734,1676104289,458274624,base_link,0.0517947217991043,-0.018283796792406763,0.03941257171374986,-0.997712209801709,1.0,0.0,0.0,0.0,1.0,0.0,0.0,0.0,1.0,-0.0014305104268714786,1.6772653907537528e-05,0.0005535841919481754,1.2184696791468346e-07,0.0,0.0,0.0,1.2184696791468346e-07,0.0,0.0,0.0,1.2184696791468346e-07,-0.3126634955406189,-1.0376657247543324,9.737808227539062,8.999999999999999e-08,0.0,0.0,0.0,8.999999999999999e-08,0.0,0.0,0.0,8.999999999999999e-08
1676104289.4867117,6735,1676104289,483274624,base_link,0.05180365429681058,-0.01828733976185971,0.03941754504187417,-0.997711535452133,1.0,0.0,0.0,0.0,1.0,0.0,0.0,0.0,1.0,-0.0009836103999987245,0.00014891428872942914,-0.0007922062650322914,1.2184696791468346e-07,0.0,0.0,0.0,1.2184696791468346e-07,0.0,0.0,0.0,1.2184696791468346e-07,-0.32036304473876953,-1.042400836944579,9.734707832336426,8.999999999999999e-08,0.0,0.0,0.0,8.999999999999999e-08,0.0,0.0,0.0,8.999999999999999e-08
1676104289.5103066,6736,1676104289,498277440,base_link,0.05180721043715369,-0.01829596406073625,0.03941177092362815,-0.9977114090115874,1.0,0.0,0.0,0.0,1.0,0.0,0.0,0.0,1.0,0.0006889833603054285,0.0009253132157027722,0.0007441742345690726,1.2184696791468346e-07,0.0,0.0,0.0,1.2184696791468346e-07,0.0,0.0,0.0,1.2184696791468346e-07,-0.31956401467323303,-1.0300779342651356,9.751716613769531,8.999999999999999e-08,0.0,0.0,0.0,8.999999999999999e-08,0.0,0.0,0.0,8.999999999999999e-08
1676104289.5256097,6737,1676104289,518277440,base_link,0.051809479781528195,-0.018303240977549463,0.03941274030114391,-0.9977111139836478,1.0,0.0,0.0,0.0,1.0,0.0,0.0,0.0,1.0,0.001185126486234367,0.0014369443524628878,-0.0004597390070557596,1.2184696791468346e-07,0.0,0.0,0.0,1.2184696791468346e-07,0.0,0.0,0.0,1.2184696791468346e-07,-0.32488855719566345,-1.0173453092575062,9.75404167175293,8.999999999999999e-08,0.0,0.0,0.0,8.999999999999999e-08,0.0,0.0,0.0,8.999999999999999e-08
1676104289.5445688,6738,1676104289,538277440,base_link,0.051804265426113986,-0.01831541483132403,0.039409242112717485,-0.9977113247178904,1.0,0.0,0.0,0.0,1.0,0.0,0.0,0.0,1.0,0.0015216274186968803,0.0019266200251877308,-0.0001566642895340922,1.2184696791468346e-07,0.0,0.0,0.0,1.2184696791468346e-07,0.0,0.0,0.0,1.2184696791468346e-07,-0.3327395021915436,-1.0218764543533314,9.750482559204102,8.999999999999999e-08,0.0,0.0,0.0,8.999999999999999e-08,0.0,0.0,0.0,8.999999999999999e-08
1676104289.5643435,6739,1676104289,558277440,base_link,0.051803940105127046,-0.01832320541285347,0.03941750289502566,-0.9977108189557082,1.0,0.0,0.0,0.0,1.0,0.0,0.0,0.0,1.0,0.0026119721587747335,0.0004346994683146476,-0.0005732285790145397,1.2184696791468346e-07,0.0,0.0,0.0,1.2184696791468346e-07,0.0,0.0,0.0,1.2184696791468346e-07,-0.30561259388923645,-1.0199363231658924,9.74145793914795,8.999999999999999e-08,0.0,0.0,0.0,8.999999999999999e-08,0.0,0.0,0.0,8.999999999999999e-08
1676104289.5849934,6740,1676104289,578277440,base_link,0.051794266086304774,-0.018319571564258414,0.03941396255975073,-0.9977115775989814,1.0,0.0,0.0,0.0,1.0,0.0,0.0,0.0,1.0,0.0013693831861019135,-0.0004213002976030112,-0.00035020103678107256,1.2184696791468346e-07,0.0,0.0,0.0,1.2184696791468346e-07,0.0,0.0,0.0,1.2184696791468346e-07,-0.3165622353553772,-1.0247437953948964,9.736835479736328,8.999999999999999e-08,0.0,0.0,0.0,8.999999999999999e-08,0.0,0.0,0.0,8.999999999999999e-08
1676104289.6047332,6741,1676104289,598280000,base_link,0.0517881877204961,-0.018315302878757673,0.03941008504968771,-0.9977120833611636,1.0,0.0,0.0,0.0,1.0,0.0,0.0,0.0,1.0,0.0007145279087126255,-0.00011735246516764154,0.0008023139089345932,1.2184696791468346e-07,0.0,0.0,0.0,1.2184696791468346e-07,0.0,0.0,0.0,1.2184696791468346e-07,-0.3321714401245117,-1.0502125024795521,9.759363174438477,8.999999999999999e-08,0.0,0.0,0.0,8.999999999999999e-08,0.0,0.0,0.0,8.999999999999999e-08
1676104289.6248693,6742,1676104289,618280000,base_link,0.05179254728513894,-0.01831843491643764,0.03941143374884006,-0.9977117461863755,1.0,0.0,0.0,0.0,1.0,0.0,0.0,0.0,1.0,0.0018672673031687737,-0.0003772126510739327,-0.00047054467722773547,1.2184696791468346e-07,0.0,0.0,0.0,1.2184696791468346e-07,0.0,0.0,0.0,1.2184696791468346e-07,-0.3256920874118805,-1.027859330177306,9.731498718261719,8.999999999999999e-08,0.0,0.0,0.0,8.999999999999999e-08,0.0,0.0,0.0,8.999999999999999e-08
1676104289.6452396,6743,1676104289,638280000,base_link,0.051793578565838445,-0.01831356827252365,0.03941168662993113,-0.9977118304800725,1.0,0.0,0.0,0.0,1.0,0.0,0.0,0.0,1.0,-0.0007731905207037926,-0.0003278967924416066,-0.0005340208299458027,1.2184696791468346e-07,0.0,0.0,0.0,1.2184696791468346e-07,0.0,0.0,0.0,1.2184696791468346e-07,-0.33122992515563965,-1.0400549173355091,9.737531661987305,8.999999999999999e-08,0.0,0.0,0.0,8.999999999999999e-08,0.0,0.0,0.0,8.999999999999999e-08
1676104289.666138,6744,1676104289,658280000,base_link,0.05180391903170278,-0.018321034850155155,0.039408357028898756,-0.9977112825710419,1.0,0.0,0.0,0.0,1.0,0.0,0.0,0.0,1.0,0.0002728858089540154,0.0006881162989884615,5.696434527635566e-05,1.2184696791468346e-07,0.0,0.0,0.0,1.2184696791468346e-07,0.0,0.0,0.0,1.2184696791468346e-07,-0.3239050507545471,-1.020457625389098,9.763652801513672,8.999999999999999e-08,0.0,0.0,0.0,8.999999999999999e-08,0.0,0.0,0.0,8.999999999999999e-08
1676104289.686256,6745,1676104289,678280000,base_link,0.05180790322597608,-0.018320016740345814,0.03941033793077878,-0.9977109875431023,1.0,0.0,0.0,0.0,1.0,0.0,0.0,0.0,1.0,0.0013323816237971187,0.0003745646681636569,-0.0023420918732881546,1.2184696791468346e-07,0.0,0.0,0.0,1.2184696791468346e-07,0.0,0.0,0.0,1.2184696791468346e-07,-0.30034899711608887,-1.0498037338256825,9.771557807922363,8.999999999999999e-08,0.0,0.0,0.0,8.999999999999999e-08,0.0,0.0,0.0,8.999999999999999e-08
1676104289.704758,6746,1676104289,698282304,base_link,0.051810171253261574,-0.018316320988567013,0.039415817021085216,-0.9977107346620112,1.0,0.0,0.0,0.0,1.0,0.0,0.0,0.0,1.0,-0.0011293018469586968,-0.0012618881883099675,-0.000807962380349636,1.2184696791468346e-07,0.0,0.0,0.0,1.2184696791468346e-07,0.0,0.0,0.0,1.2184696791468346e-07,-0.30766111612319946,-1.047729730606078,9.755510330200195,8.999999999999999e-08,0.0,0.0,0.0,8.999999999999999e-08,0.0,0.0,0.0,8.999999999999999e-08
1676104289.725687,6747,1676104289,718282304,base_link,0.051815126142139636,-0.018312978216644495,0.03941784006981375,-0.9977104817809201,1.0,0.0,0.0,0.0,1.0,0.0,0.0,0.0,1.0,0.001994379097595811,0.0006327710580080747,-0.001079463865607977,1.2184696791468346e-07,0.0,0.0,0.0,1.2184696791468346e-07,0.0,0.0,0.0,1.2184696791468346e-07,-0.3149341940879822,-1.0390728712081898,9.738863945007324,8.999999999999999e-08,0.0,0.0,0.0,8.999999999999999e-08,0.0,0.0,0.0,8.999999999999999e-08
1676104289.7441833,6748,1676104289,738282304,base_link,0.051815546293535734,-0.018315186974924267,0.039417123573389064,-0.9977103553403747,1.0,0.0,0.0,0.0,1.0,0.0,0.0,0.0,1.0,0.0006809476763010025,0.0003768294118344784,-8.204812183976177e-05,1.2184696791468346e-07,0.0,0.0,0.0,1.2184696791468346e-07,0.0,0.0,0.0,1.2184696791468346e-07,-0.3193877935409546,-1.0055985450744618,9.754667282104492,8.999999999999999e-08,0.0,0.0,0.0,8.999999999999999e-08,0.0,0.0,0.0,8.999999999999999e-08
1676104289.7656207,6749,1676104289,758282304,base_link,0.05180832732863922,-0.01831956629590235,0.03941661781120693,-0.9977106925151628,1.0,0.0,0.0,0.0,1.0,0.0,0.0,0.0,1.0,-0.0006171585409902036,-0.0004701334983110428,-2.1932646632188762e-07,1.2184696791468346e-07,0.0,0.0,0.0,1.2184696791468346e-07,0.0,0.0,0.0,1.2184696791468346e-07,-0.3128661513328552,-1.0459799766540516,9.749372482299805,8.999999999999999e-08,0.0,0.0,0.0,8.999999999999999e-08,0.0,0.0,0.0,8.999999999999999e-08
1676104289.7831132,6750,1676104289,778282304,base_link,0.05181093384780182,-0.01831785012891455,0.03941847227254136,-0.9977105239277687,1.0,0.0,0.0,0.0,1.0,0.0,0.0,0.0,1.0,-6.8417866714298725e-06,0.00043656141497194767,9.491667151451105e-05,1.2184696791468346e-07,0.0,0.0,0.0,1.2184696791468346e-07,0.0,0.0,0.0,1.2184696791468346e-07,-0.33528637886047363,-1.010148286819457,9.759617805480957,8.999999999999999e-08,0.0,0.0,0.0,8.999999999999999e-08,0.0,0.0,0.0,8.999999999999999e-08
1676104289.8060384,6751,1676104289,798286656,base_link,0.051809574611937345,-0.018319325268612432,0.03941467905617542,-0.9977107768088598,1.0,0.0,0.0,0.0,1.0,0.0,0.0,0.0,1.0,0.0018117320723831654,0.000139824580401182,-0.0014114337973296642,1.2184696791468346e-07,0.0,0.0,0.0,1.2184696791468346e-07,0.0,0.0,0.0,1.2184696791468346e-07,-0.32957160472869873,-1.0495829582214344,9.747023582458496,8.999999999999999e-08,0.0,0.0,0.0,8.999999999999999e-08,0.0,0.0,0.0,8.999999999999999e-08
1676104289.8256772,6752,1676104289,818286656,base_link,0.05181636157163661,-0.018321373342032262,0.039413203916477534,-0.9977103974872231,1.0,0.0,0.0,0.0,1.0,0.0,0.0,0.0,1.0,-0.0006856581312604249,0.000903921201825142,0.0005247448571026324,1.2184696791468346e-07,0.0,0.0,0.0,1.2184696791468346e-07,0.0,0.0,0.0,1.2184696791468346e-07,-0.2976522147655487,-1.022916793823241,9.733281135559082,8.999999999999999e-08,0.0,0.0,0.0,8.999999999999999e-08,0.0,0.0,0.0,8.999999999999999e-08
1676104289.8445108,6753,1676104289,838286656,base_link,0.051811984884836564,-0.018321535343981222,0.039414215440841796,-0.9977105660746172,1.0,0.0,0.0,0.0,1.0,0.0,0.0,0.0,1.0,0.002291793003678322,0.00015649967826902864,-0.0003289193846285343,1.2184696791468346e-07,0.0,0.0,0.0,1.2184696791468346e-07,0.0,0.0,0.0,1.2184696791468346e-07,-0.3266453742980957,-1.0231218338012684,9.726582527160645,8.999999999999999e-08,0.0,0.0,0.0,8.999999999999999e-08,0.0,0.0,0.0,8.999999999999999e-08
1676104289.8640654,6754,1676104289,858286656,base_link,0.05181335334032414,-0.01832384946938227,0.03941227668581029,-0.9977105660746172,1.0,0.0,0.0,0.0,1.0,0.0,0.0,0.0,1.0,-0.0010573141044005752,0.0013864627107977867,0.00066195847466588,1.2184696791468346e-07,0.0,0.0,0.0,1.2184696791468346e-07,0.0,0.0,0.0,1.2184696791468346e-07,-0.32630905508995056,-1.0319886207580555,9.759366989135742,8.999999999999999e-08,0.0,0.0,0.0,8.999999999999999e-08,0.0,0.0,0.0,8.999999999999999e-08
1676104289.8848827,6755,1676104289,878286656,base_link,0.05182554299916691,-0.018324662113305124,0.03941851441938987,-0.9977096388439499,1.0,0.0,0.0,0.0,1.0,0.0,0.0,0.0,1.0,-0.0010864692740142345,0.00043708761222660525,-0.0011343671940267086,1.2184696791468346e-07,0.0,0.0,0.0,1.2184696791468346e-07,0.0,0.0,0.0,1.2184696791468346e-07,-0.3240668475627899,-1.033442974090575,9.767532348632812,8.999999999999999e-08,0.0,0.0,0.0,8.999999999999999e-08,0.0,0.0,0.0,8.999999999999999e-08
1676104289.904906,6756,1676104289,898288960,base_link,0.051831966442297775,-0.018325013776072385,0.039421253964543095,-0.9977092595223134,1.0,0.0,0.0,0.0,1.0,0.0,0.0,0.0,1.0,0.00041711845551617444,0.0015654065646231177,0.0010849926620721815,1.2184696791468346e-07,0.0,0.0,0.0,1.2184696791468346e-07,0.0,0.0,0.0,1.2184696791468346e-07,-0.34308257699012756,-1.0390092134475697,9.754353523254395,8.999999999999999e-08,0.0,0.0,0.0,8.999999999999999e-08,0.0,0.0,0.0,8.999999999999999e-08
1676104289.924874,6757,1676104289,918288960,base_link,0.05183877579251031,-0.0183239258605452,0.03941918876896605,-0.9977089644943737,1.0,0.0,0.0,0.0,1.0,0.0,0.0,0.0,1.0,0.000504900817759335,0.00024005211889743791,-0.001135340891778469,1.2184696791468346e-07,0.0,0.0,0.0,1.2184696791468346e-07,0.0,0.0,0.0,1.2184696791468346e-07,-0.3337974548339844,-1.0529466867446888,9.771651268005371,8.999999999999999e-08,0.0,0.0,0.0,8.999999999999999e-08,0.0,0.0,0.0,8.999999999999999e-08
1676104289.9467785,6758,1676104289,938288960,base_link,0.05183594009985894,-0.018324754309536243,0.039419610237451164,-0.9977090487880708,1.0,0.0,0.0,0.0,1.0,0.0,0.0,0.0,1.0,0.00010315465624444187,0.00012718467041850095,0.0004076985642313957,1.2184696791468346e-07,0.0,0.0,0.0,1.2184696791468346e-07,0.0,0.0,0.0,1.2184696791468346e-07,-0.31795188784599304,-1.064151644706725,9.748952865600586,8.999999999999999e-08,0.0,0.0,0.0,8.999999999999999e-08,0.0,0.0,0.0,8.999999999999999e-08
1676104289.9641008,6759,1676104289,958288960,base_link,0.051837002990694825,-0.018320994020395658,0.03942239192945289,-0.9977089644943737,1.0,0.0,0.0,0.0,1.0,0.0,0.0,0.0,1.0,0.0023844342213124037,-0.00044071255251765246,0.0005880841054022312,1.2184696791468346e-07,0.0,0.0,0.0,1.2184696791468346e-07,0.0,0.0,0.0,1.2184696791468346e-07,-0.30099159479141235,-1.0195049047470082,9.738809585571289,8.999999999999999e-08,0.0,0.0,0.0,8.999999999999999e-08,0.0,0.0,0.0,8.999999999999999e-08
1676104289.9850388,6760,1676104289,978288960,base_link,0.051836477472177456,-0.018322056911231545,0.03941855656623838,-0.9977091752286164,1.0,0.0,0.0,0.0,1.0,0.0,0.0,0.0,1.0,0.0018764589913189411,-0.00023448653519153603,-0.000672320369631052,1.2184696791468346e-07,0.0,0.0,0.0,1.2184696791468346e-07,0.0,0.0,0.0,1.2184696791468346e-07,-0.3184075355529785,-1.032608151435851,9.757311820983887,8.999999999999999e-08,0.0,0.0,0.0,8.999999999999999e-08,0.0,0.0,0.0,8.999999999999999e-08
1676104290.005012,6761,1676104289,998292032,base_link,0.05183968458393133,-0.018316062839119886,0.03941880944732945,-0.9977090909349193,1.0,0.0,0.0,0.0,1.0,0.0,0.0,0.0,1.0,5.723375943489373e-05,-0.0006259636720642447,-0.0002160463482141494,1.2184696791468346e-07,0.0,0.0,0.0,1.2184696791468346e-07,0.0,0.0,0.0,1.2184696791468346e-07,-0.3207888901233673,-1.031073212623595,9.765413284301758,8.999999999999999e-08,0.0,0.0,0.0,8.999999999999999e-08,0.0,0.0,0.0,8.999999999999999e-08
1676104290.025043,6762,1676104290,18292032,base_link,0.051849358602753595,-0.01830928114777668,0.039420326733875855,-0.9977086694664342,1.0,0.0,0.0,0.0,1.0,0.0,0.0,0.0,1.0,2.4978333385661244e-05,-0.0001428050454705956,-0.002041976898908615,1.2184696791468346e-07,0.0,0.0,0.0,1.2184696791468346e-07,0.0,0.0,0.0,1.2184696791468346e-07,-0.3025600016117096,-1.0398279428482045,9.758288383483887,8.999999999999999e-08,0.0,0.0,0.0,8.999999999999999e-08,0.0,0.0,0.0,8.999999999999999e-08
1676104290.0449448,6763,1676104290,39292032,base_link,0.051857963145294894,-0.018307630835239674,0.039427871019759336,-0.9977078686763126,1.0,0.0,0.0,0.0,1.0,0.0,0.0,0.0,1.0,-0.0017666316125541925,-0.0001760039012879135,-0.001526462845504284,1.2184696791468346e-07,0.0,0.0,0.0,1.2184696791468346e-07,0.0,0.0,0.0,1.2184696791468346e-07,-0.3249359726905823,-1.0443989038467396,9.756230354309082,8.999999999999999e-08,0.0,0.0,0.0,8.999999999999999e-08,0.0,0.0,0.0,8.999999999999999e-08
1676104290.0661142,6764,1676104290,58292032,base_link,0.05186396511994065,-0.01830895187552269,0.03942829248824445,-0.9977076157952215,1.0,0.0,0.0,0.0,1.0,0.0,0.0,0.0,1.0,0.0019441416952759027,0.001336829736828804,0.0004624612629413603,1.2184696791468346e-07,0.0,0.0,0.0,1.2184696791468346e-07,0.0,0.0,0.0,1.2184696791468346e-07,-0.2946593463420868,-1.051543354988097,9.731300354003906,8.999999999999999e-08,0.0,0.0,0.0,8.999999999999999e-08,0.0,0.0,0.0,8.999999999999999e-08
1676104290.086337,6765,1676104290,78292032,base_link,0.051854852181039184,-0.018315161950232965,0.03942799746030487,-0.997707910823161,1.0,0.0,0.0,0.0,1.0,0.0,0.0,0.0,1.0,0.0012861863942816854,0.000161304837092757,-0.0017437692731618881,1.2184696791468346e-07,0.0,0.0,0.0,1.2184696791468346e-07,0.0,0.0,0.0,1.2184696791468346e-07,-0.3126429319381714,-1.0309046506881703,9.725932121276855,8.999999999999999e-08,0.0,0.0,0.0,8.999999999999999e-08,0.0,0.0,0.0,8.999999999999999e-08
1676104290.1051114,6766,1676104290,98294592,base_link,0.05185578599715151,-0.01831562424847757,0.03943735406067427,-0.9977074893546759,1.0,0.0,0.0,0.0,1.0,0.0,0.0,0.0,1.0,0.00034925653017126024,-0.0004430485423654316,0.0013283793814480305,1.2184696791468346e-07,0.0,0.0,0.0,1.2184696791468346e-07,0.0,0.0,0.0,1.2184696791468346e-07,-0.3011711537837982,-1.0345205068588246,9.73857307434082,8.999999999999999e-08,0.0,0.0,0.0,8.999999999999999e-08,0.0,0.0,0.0,8.999999999999999e-08
1676104290.125613,6767,1676104290,118294592,base_link,0.05185281859559854,-0.018315562345293822,0.03943035768382143,-0.997707995116858,1.0,0.0,0.0,0.0,1.0,0.0,0.0,0.0,1.0,-5.184594192542136e-05,0.00025609461590647703,0.0004368755035102367,1.2184696791468346e-07,0.0,0.0,0.0,1.2184696791468346e-07,0.0,0.0,0.0,1.2184696791468346e-07,-0.3085249662399292,-1.0482932329177845,9.760753631591797,8.999999999999999e-08,0.0,0.0,0.0,8.999999999999999e-08,0.0,0.0,0.0,8.999999999999999e-08
1676104290.1468098,6768,1676104290,138294592,base_link,0.051846837694377035,-0.01831071150644802,0.03943132706133719,-0.9977082901447976,1.0,0.0,0.0,0.0,1.0,0.0,0.0,0.0,1.0,0.0006154656875878572,-0.0015309681184589863,0.00036819465458393113,1.2184696791468346e-07,0.0,0.0,0.0,1.2184696791468346e-07,0.0,0.0,0.0,1.2184696791468346e-07,-0.2985490560531616,-1.0206657648086537,9.718984603881836,8.999999999999999e-08,0.0,0.0,0.0,8.999999999999999e-08,0.0,0.0,0.0,8.999999999999999e-08
1676104290.1637113,6769,1676104290,158294592,base_link,0.0518456220212153,-0.01830415108605949,0.03942702808278911,-0.9977086273195858,1.0,0.0,0.0,0.0,1.0,0.0,0.0,0.0,1.0,0.0007167590083554387,-0.00020267022773623456,0.0009932671673595905,1.2184696791468346e-07,0.0,0.0,0.0,1.2184696791468346e-07,0.0,0.0,0.0,1.2184696791468346e-07,-0.3028358519077301,-1.0284554958343495,9.74390983581543,8.999999999999999e-08,0.0,0.0,0.0,8.999999999999999e-08,0.0,0.0,0.0,8.999999999999999e-08
1676104290.1858974,6770,1676104290,178294592,base_link,0.05184304579510007,-0.018303524151687893,0.039420958936603516,-0.9977090487880708,1.0,0.0,0.0,0.0,1.0,0.0,0.0,0.0,1.0,0.0018315170891582966,0.0007610528264194728,0.0006088092923164367,1.2184696791468346e-07,0.0,0.0,0.0,1.2184696791468346e-07,0.0,0.0,0.0,1.2184696791468346e-07,-0.33115577697753906,-1.0422093868255604,9.757484436035156,8.999999999999999e-08,0.0,0.0,0.0,8.999999999999999e-08,0.0,0.0,0.0,8.999999999999999e-08
1676104290.2057803,6771,1676104290,198296896,base_link,0.051837358604729135,-0.01830198315753921,0.03942154899248267,-0.9977093859628589,1.0,0.0,0.0,0.0,1.0,0.0,0.0,0.0,1.0,0.0014353664591908455,-0.00039684143848717224,-0.0009297640062868595,1.2184696791468346e-07,0.0,0.0,0.0,1.2184696791468346e-07,0.0,0.0,0.0,1.2184696791468346e-07,-0.3255833685398102,-1.0340044498443592,9.749357223510742,8.999999999999999e-08,0.0,0.0,0.0,8.999999999999999e-08,0.0,0.0,0.0,8.999999999999999e-08
1676104290.225615,6772,1676104290,219296896,base_link,0.051837907830848795,-0.018302324283594348,0.039423192719574604,-0.9977092595223134,1.0,0.0,0.0,0.0,1.0,0.0,0.0,0.0,1.0,0.00017919493257068098,0.0007626316510140896,0.00039729056879878033,1.2184696791468346e-07,0.0,0.0,0.0,1.2184696791468346e-07,0.0,0.0,0.0,1.2184696791468346e-07,-0.31008395552635193,-1.0267419815063465,9.743319511413574,8.999999999999999e-08,0.0,0.0,0.0,8.999999999999999e-08,0.0,0.0,0.0,8.999999999999999e-08
1676104290.2453413,6773,1676104290,239296896,base_link,0.051828866014754185,-0.018302188623425704,0.0394201581464818,-0.9977098495781925,1.0,0.0,0.0,0.0,1.0,0.0,0.0,0.0,1.0,0.002599013037979603,0.0007007243111729623,0.0005392003804445266,1.2184696791468346e-07,0.0,0.0,0.0,1.2184696791468346e-07,0.0,0.0,0.0,1.2184696791468346e-07,-0.3192818760871887,-1.029480457305907,9.747062683105469,8.999999999999999e-08,0.0,0.0,0.0,8.999999999999999e-08,0.0,0.0,0.0,8.999999999999999e-08
1676104290.2668576,6774,1676104290,259296896,base_link,0.051829494266214804,-0.018310226817690144,0.03942066390866394,-0.9977095966971015,1.0,0.0,0.0,0.0,1.0,0.0,0.0,0.0,1.0,-0.00012865770258940756,0.0008301790803670882,-0.0005823536776006223,1.2184696791468346e-07,0.0,0.0,0.0,1.2184696791468346e-07,0.0,0.0,0.0,1.2184696791468346e-07,-0.3334173262119293,-1.0405406951904286,9.745783805847168,8.999999999999999e-08,0.0,0.0,0.0,8.999999999999999e-08,0.0,0.0,0.0,8.999999999999999e-08
1676104290.2866995,6775,1676104290,279296896,base_link,0.051828564401369535,-0.018314191255628196,0.03942032673387585,-0.9977095966971015,1.0,0.0,0.0,0.0,1.0,0.0,0.0,0.0,1.0,0.000578526989556849,-0.0016041260678321123,0.0007692580111324789,1.2184696791468346e-07,0.0,0.0,0.0,1.2184696791468346e-07,0.0,0.0,0.0,1.2184696791468346e-07,-0.3174273371696472,-1.0179320573806752,9.749094009399414,8.999999999999999e-08,0.0,0.0,0.0,8.999999999999999e-08,0.0,0.0,0.0,8.999999999999999e-08
1676104290.3055522,6776,1676104290,299299456,base_link,0.05182997895497268,-0.018307092145832145,0.0394281239008504,-0.9977093859628589,1.0,0.0,0.0,0.0,1.0,0.0,0.0,0.0,1.0,0.0004459813644643873,-0.0008801047224551438,0.0005815443582832814,1.2184696791468346e-07,0.0,0.0,0.0,1.2184696791468346e-07,0.0,0.0,0.0,1.2184696791468346e-07,-0.3176843225955963,-1.0219926834106434,9.75538158416748,8.999999999999999e-08,0.0,0.0,0.0,8.999999999999999e-08,0.0,0.0,0.0,8.999999999999999e-08
1676104290.3244476,6777,1676104290,319299456,base_link,0.05182806917589953,-0.018310329550633386,0.03942201260781629,-0.9977096809907985,1.0,0.0,0.0,0.0,1.0,0.0,0.0,0.0,1.0,-0.0003458054270595312,0.0010910797864198687,0.0013379282318055628,1.2184696791468346e-07,0.0,0.0,0.0,1.2184696791468346e-07,0.0,0.0,0.0,1.2184696791468346e-07,-0.2876304090023041,-1.039184808731078,9.743668556213379,8.999999999999999e-08,0.0,0.0,0.0,8.999999999999999e-08,0.0,0.0,0.0,8.999999999999999e-08
1676104290.3450396,6778,1676104290,339299456,base_link,0.0518273078984483,-0.01831100653438759,0.03941594346163075,-0.9977099338718896,1.0,0.0,0.0,0.0,1.0,0.0,0.0,0.0,1.0,0.0004569119482766837,-0.0002753543667495249,0.0014169495552778244,1.2184696791468346e-07,0.0,0.0,0.0,1.2184696791468346e-07,0.0,0.0,0.0,1.2184696791468346e-07,-0.31122541427612305,-1.051570415496825,9.739788055419922,8.999999999999999e-08,0.0,0.0,0.0,8.999999999999999e-08,0.0,0.0,0.0,8.999999999999999e-08
1676104290.364664,6779,1676104290,359299456,base_link,0.05183224171390211,-0.0183125580652484,0.03941210809841625,-0.997709807431344,1.0,0.0,0.0,0.0,1.0,0.0,0.0,0.0,1.0,0.00039933048537932336,0.00029088277369737636,0.0007935385219752789,1.2184696791468346e-07,0.0,0.0,0.0,1.2184696791468346e-07,0.0,0.0,0.0,1.2184696791468346e-07,-0.31930023431777954,-1.0297372341155995,9.742572784423828,8.999999999999999e-08,0.0,0.0,0.0,8.999999999999999e-08,0.0,0.0,0.0,8.999999999999999e-08
1676104290.385989,6780,1676104290,379299456,base_link,0.05183704645463235,-0.018307115853434433,0.03940692403604939,-0.9977098495781925,1.0,0.0,0.0,0.0,1.0,0.0,0.0,0.0,1.0,-0.0006636483012698591,-0.0008528145262971519,0.0007445639930665494,1.2184696791468346e-07,0.0,0.0,0.0,1.2184696791468346e-07,0.0,0.0,0.0,1.2184696791468346e-07,-0.31571823358535767,-1.0354648828506459,9.77956485748291,8.999999999999999e-08,0.0,0.0,0.0,8.999999999999999e-08,0.0,0.0,0.0,8.999999999999999e-08
1676104290.405746,6781,1676104290,399302016,base_link,0.05183456505892627,-0.018305356222509103,0.039404142344047655,-0.9977101024592836,1.0,0.0,0.0,0.0,1.0,0.0,0.0,0.0,1.0,0.002752767177298665,-0.00012906803749501702,0.00013237399980425837,1.2184696791468346e-07,0.0,0.0,0.0,1.2184696791468346e-07,0.0,0.0,0.0,1.2184696791468346e-07,-0.3221491575241089,-1.0405189990997303,9.747359275817871,8.999999999999999e-08,0.0,0.0,0.0,8.999999999999999e-08,0.0,0.0,0.0,8.999999999999999e-08
1676104290.4253366,6782,1676104290,419302016,base_link,0.05183014490818869,-0.01829610498926096,0.03940637612701874,-0.9977104817809201,1.0,0.0,0.0,0.0,1.0,0.0,0.0,0.0,1.0,-0.00031483639031648636,-4.0818704292178235e-05,-0.000682490412145853,1.2184696791468346e-07,0.0,0.0,0.0,1.2184696791468346e-07,0.0,0.0,0.0,1.2184696791468346e-07,-0.3057054579257965,-1.0108664035797108,9.743744850158691,8.999999999999999e-08,0.0,0.0,0.0,8.999999999999999e-08,0.0,0.0,0.0,8.999999999999999e-08
1676104290.4448063,6783,1676104290,439302016,base_link,0.051836439276595994,-0.018299672983405214,0.03940325726022898,-0.997710144606132,1.0,0.0,0.0,0.0,1.0,0.0,0.0,0.0,1.0,-0.0012662698281928897,0.00014548609033226975,0.0005961987189948559,1.2184696791468346e-07,0.0,0.0,0.0,1.2184696791468346e-07,0.0,0.0,0.0,1.2184696791468346e-07,-0.32516634464263916,-1.0342394113540638,9.742427825927734,8.999999999999999e-08,0.0,0.0,0.0,8.999999999999999e-08,0.0,0.0,0.0,8.999999999999999e-08
1676104290.4669657,6784,1676104290,459302016,base_link,0.051839322384451936,-0.018293665740403395,0.03940979002174814,-0.9977098495781925,1.0,0.0,0.0,0.0,1.0,0.0,0.0,0.0,1.0,-5.910819163545966e-05,-0.0008006246061995625,-0.0001233583316206931,1.2184696791468346e-07,0.0,0.0,0.0,1.2184696791468346e-07,0.0,0.0,0.0,1.2184696791468346e-07,-0.3145877718925476,-1.0386135578155506,9.745501518249512,8.999999999999999e-08,0.0,0.0,0.0,8.999999999999999e-08,0.0,0.0,0.0,8.999999999999999e-08
1676104290.4848242,6785,1676104290,479302016,base_link,0.051830512376024145,-0.01829028477289941,0.03941050651817282,-0.9977103131935261,1.0,0.0,0.0,0.0,1.0,0.0,0.0,0.0,1.0,0.0012106458889320493,0.00019940757192671294,-0.0004882635548710823,1.2184696791468346e-07,0.0,0.0,0.0,1.2184696791468346e-07,0.0,0.0,0.0,1.2184696791468346e-07,-0.3245820999145508,-1.0258541107177723,9.756025314331055,8.999999999999999e-08,0.0,0.0,0.0,8.999999999999999e-08,0.0,0.0,0.0,8.999999999999999e-08
1676104290.5056765,6786,1676104290,499304576,base_link,0.05181985317461794,-0.018296644995757505,0.03941311962278051,-0.9977106503683142,1.0,0.0,0.0,0.0,1.0,0.0,0.0,0.0,1.0,0.0013745573814958334,-0.0003857391420751809,0.00103306258097291,1.2184696791468346e-07,0.0,0.0,0.0,1.2184696791468346e-07,0.0,0.0,0.0,1.2184696791468346e-07,-0.32115238904953003,-1.0294744968414296,9.764248847961426,8.999999999999999e-08,0.0,0.0,0.0,8.999999999999999e-08,0.0,0.0,0.0,8.999999999999999e-08
1676104290.525666,6787,1676104290,519304576,base_link,0.051819909809445626,-0.01829591927970971,0.03941151804253709,-0.9977107346620112,1.0,0.0,0.0,0.0,1.0,0.0,0.0,0.0,1.0,-0.00040358040132559836,-0.0006973823765292762,0.0014770952984690666,1.2184696791468346e-07,0.0,0.0,0.0,1.2184696791468346e-07,0.0,0.0,0.0,1.2184696791468346e-07,-0.3208483159542084,-1.0305951833724964,9.76101303100586,8.999999999999999e-08,0.0,0.0,0.0,8.999999999999999e-08,0.0,0.0,0.0,8.999999999999999e-08
1676104290.5461538,6788,1676104290,539304576,base_link,0.05181508267820211,-0.018294129355737015,0.039409579287505575,-0.9977111561304963,1.0,0.0,0.0,0.0,1.0,0.0,0.0,0.0,1.0,0.001678957836702466,0.0008637921418994665,0.00035071000456809987,1.2184696791468346e-07,0.0,0.0,0.0,1.2184696791468346e-07,0.0,0.0,0.0,1.2184696791468346e-07,-0.33123210072517395,-1.0617530345916737,9.736072540283203,8.999999999999999e-08,0.0,0.0,0.0,8.999999999999999e-08,0.0,0.0,0.0,8.999999999999999e-08
1676104290.5648425,6789,1676104290,559304576,base_link,0.05181955946376738,-0.018284431629312457,0.03940178212053109,-0.9977113668647389,1.0,0.0,0.0,0.0,1.0,0.0,0.0,0.0,1.0,0.0018990146927535534,0.0009647845290601251,-0.001428591087460518,1.2184696791468346e-07,0.0,0.0,0.0,1.2184696791468346e-07,0.0,0.0,0.0,1.2184696791468346e-07,-0.320492148399353,-1.0376006364822377,9.72456169128418,8.999999999999999e-08,0.0,0.0,0.0,8.999999999999999e-08,0.0,0.0,0.0,8.999999999999999e-08
1676104290.5854053,6790,1676104290,579304576,base_link,0.051815114288338494,-0.018282712828146627,0.039405659630594045,-0.997711451158436,1.0,0.0,0.0,0.0,1.0,0.0,0.0,0.0,1.0,0.0020648238714784384,2.769846469163893e-05,-0.00014343438670039177,1.2184696791468346e-07,0.0,0.0,0.0,1.2184696791468346e-07,0.0,0.0,0.0,1.2184696791468346e-07,-0.31499579548835754,-1.0425350666046131,9.75843334197998,8.999999999999999e-08,0.0,0.0,0.0,8.999999999999999e-08,0.0,0.0,0.0,8.999999999999999e-08
1676104290.6040494,6791,1676104290,599307136,base_link,0.05181155156255031,-0.018283615034122562,0.03940380516925961,-0.997711704039527,1.0,0.0,0.0,0.0,1.0,0.0,0.0,0.0,1.0,0.0008015227504074574,-0.0013892374699935317,4.808371886611002e-05,1.2184696791468346e-07,0.0,0.0,0.0,1.2184696791468346e-07,0.0,0.0,0.0,1.2184696791468346e-07,-0.3122303783893585,-1.0315085649490345,9.743451118469238,8.999999999999999e-08,0.0,0.0,0.0,8.999999999999999e-08,0.0,0.0,0.0,8.999999999999999e-08
1676104290.6251068,6792,1676104290,619307136,base_link,0.05181449130523394,-0.018284916318070336,0.0393965137644672,-0.9977118304800725,1.0,0.0,0.0,0.0,1.0,0.0,0.0,0.0,1.0,0.001485363463871181,-0.0021979999728500843,-0.0006537977606058119,1.2184696791468346e-07,0.0,0.0,0.0,1.2184696791468346e-07,0.0,0.0,0.0,1.2184696791468346e-07,-0.30566078424453735,-1.024652361869811,9.760955810546875,8.999999999999999e-08,0.0,0.0,0.0,8.999999999999999e-08,0.0,0.0,0.0,8.999999999999999e-08
1676104290.6458836,6793,1676104290,639307136,base_link,0.051811996738637706,-0.01828077802438217,0.03939322631028334,-0.9977121676548606,1.0,0.0,0.0,0.0,1.0,0.0,0.0,0.0,1.0,0.00037446527858264744,-9.495089761912813e-05,0.0007672836072742939,1.2184696791468346e-07,0.0,0.0,0.0,1.2184696791468346e-07,0.0,0.0,0.0,1.2184696791468346e-07,-0.3437797725200653,-1.015746235847472,9.740845680236816,8.999999999999999e-08,0.0,0.0,0.0,8.999999999999999e-08,0.0,0.0,0.0,8.999999999999999e-08
1676104290.6640093,6794,1676104290,659307136,base_link,0.05181298455539968,-0.0182817289626517,0.039397651729377,-0.997711956920618,1.0,0.0,0.0,0.0,1.0,0.0,0.0,0.0,1.0,0.00022641473333351314,0.0001650017220526933,-0.00034940149635076523,1.2184696791468346e-07,0.0,0.0,0.0,1.2184696791468346e-07,0.0,0.0,0.0,1.2184696791468346e-07,-0.3327521085739136,-1.019976258277892,9.746212005615234,8.999999999999999e-08,0.0,0.0,0.0,8.999999999999999e-08,0.0,0.0,0.0,8.999999999999999e-08
1676104290.6864095,6795,1676104290,679307136,base_link,0.0518098683227879,-0.01828503485608177,0.03939491218422378,-0.9977121676548606,1.0,0.0,0.0,0.0,1.0,0.0,0.0,0.0,1.0,0.0003569630498532206,0.0010920970235019922,0.00039358995854854573,1.2184696791468346e-07,0.0,0.0,0.0,1.2184696791468346e-07,0.0,0.0,0.0,1.2184696791468346e-07,-0.31974515318870544,-1.0446633100509632,9.734369277954102,8.999999999999999e-08,0.0,0.0,0.0,8.999999999999999e-08,0.0,0.0,0.0,8.999999999999999e-08
1676104290.7033157,6796,1676104290,699309696,base_link,0.051809222949170085,-0.01829359330050752,0.03940039127453022,-0.9977118304800725,1.0,0.0,0.0,0.0,1.0,0.0,0.0,0.0,1.0,-0.0009329690365120769,-0.0006607406539842485,0.0008235019631683828,1.2184696791468346e-07,0.0,0.0,0.0,1.2184696791468346e-07,0.0,0.0,0.0,1.2184696791468346e-07,-0.32467636466026306,-1.0226205587387074,9.74593734741211,8.999999999999999e-08,0.0,0.0,0.0,8.999999999999999e-08,0.0,0.0,0.0,8.999999999999999e-08
1676104290.7296894,6797,1676104290,719309696,base_link,0.05180415742481468,-0.018290508678032127,0.03940308867283493,-0.9977119990674665,1.0,0.0,0.0,0.0,1.0,0.0,0.0,0.0,1.0,0.0013493907172232866,-2.0370818674564287e-05,0.0006021661683917046,1.2184696791468346e-07,0.0,0.0,0.0,1.2184696791468346e-07,0.0,0.0,0.0,1.2184696791468346e-07,-0.3126368820667267,-1.0242434740066517,9.749510765075684,8.999999999999999e-08,0.0,0.0,0.0,8.999999999999999e-08,0.0,0.0,0.0,8.999999999999999e-08
1676104290.7479978,6798,1676104290,739309696,base_link,0.051797635200007616,-0.0182882380165686,0.03940102347725788,-0.9977124626828002,1.0,0.0,0.0,0.0,1.0,0.0,0.0,0.0,1.0,-0.00018872119835577905,7.249671034514907e-05,0.00020360015332698822,1.2184696791468346e-07,0.0,0.0,0.0,1.2184696791468346e-07,0.0,0.0,0.0,1.2184696791468346e-07,-0.322711318731308,-1.0254284143447865,9.722848892211914,8.999999999999999e-08,0.0,0.0,0.0,8.999999999999999e-08,0.0,0.0,0.0,8.999999999999999e-08
1676104290.7643635,6799,1676104290,759309696,base_link,0.05179505238844731,-0.018284361823594615,0.03939744099513444,-0.9977128420044368,1.0,0.0,0.0,0.0,1.0,0.0,0.0,0.0,1.0,-0.00022890776745043695,0.0004272875376045705,0.000944911502301693,1.2184696791468346e-07,0.0,0.0,0.0,1.2184696791468346e-07,0.0,0.0,0.0,1.2184696791468346e-07,-0.3336128294467926,-1.0414952039718617,9.73985767364502,8.999999999999999e-08,0.0,0.0,0.0,8.999999999999999e-08,0.0,0.0,0.0,8.999999999999999e-08
1676104290.7856715,6800,1676104290,779309696,base_link,0.051793764275389696,-0.018286297944448082,0.039397103820346356,-0.9977128420044368,1.0,0.0,0.0,0.0,1.0,0.0,0.0,0.0,1.0,0.0025234976783394814,0.0007339026778936388,0.0013791406527161598,1.2184696791468346e-07,0.0,0.0,0.0,1.2184696791468346e-07,0.0,0.0,0.0,1.2184696791468346e-07,-0.3178583085536957,-1.0263731479644764,9.7396240234375,8.999999999999999e-08,0.0,0.0,0.0,8.999999999999999e-08,0.0,0.0,0.0,8.999999999999999e-08
1676104290.8057976,6801,1676104290,799312256,base_link,0.05179150283354928,-0.018289660472705842,0.039399253309620415,-0.9977127998575882,1.0,0.0,0.0,0.0,1.0,0.0,0.0,0.0,1.0,-0.00046779829426668584,4.814146086573628e-05,0.0022232667542994022,1.2184696791468346e-07,0.0,0.0,0.0,1.2184696791468346e-07,0.0,0.0,0.0,1.2184696791468346e-07,-0.3145478367805481,-1.0154135227203358,9.745906829833984,8.999999999999999e-08,0.0,0.0,0.0,8.999999999999999e-08,0.0,0.0,0.0,8.999999999999999e-08
1676104290.8250344,6802,1676104290,819312256,base_link,0.05179529341573723,-0.018294762875553695,0.03939529150586038,-0.9977127155638912,1.0,0.0,0.0,0.0,1.0,0.0,0.0,0.0,1.0,0.00041168686584569514,0.0011897741351276636,0.00015280582010745989,1.2184696791468346e-07,0.0,0.0,0.0,1.2184696791468346e-07,0.0,0.0,0.0,1.2184696791468346e-07,-0.29346105456352234,-1.0353410243988026,9.73869514465332,8.999999999999999e-08,0.0,0.0,0.0,8.999999999999999e-08,0.0,0.0,0.0,8.999999999999999e-08
1676104290.8456132,6803,1676104290,839312256,base_link,0.051796572309171736,-0.01829986396131253,0.03939815749155913,-0.9977124626828001,1.0,0.0,0.0,0.0,1.0,0.0,0.0,0.0,1.0,0.0007783409673720598,-0.0005237861769273875,0.0014190259389579296,1.2184696791468346e-07,0.0,0.0,0.0,1.2184696791468346e-07,0.0,0.0,0.0,1.2184696791468346e-07,-0.29495036602020264,-1.0469450950622547,9.736955642700195,8.999999999999999e-08,0.0,0.0,0.0,8.999999999999999e-08,0.0,0.0,0.0,8.999999999999999e-08
1676104290.8638623,6804,1676104290,859312256,base_link,0.05180096216686195,-0.018300526457087556,0.039408314882050245,-0.9977118304800725,1.0,0.0,0.0,0.0,1.0,0.0,0.0,0.0,1.0,0.00282535282894969,-0.0006437328411266209,-0.0012953677214682102,1.2184696791468346e-07,0.0,0.0,0.0,1.2184696791468346e-07,0.0,0.0,0.0,1.2184696791468346e-07,-0.33291202783584595,-1.040555953979491,9.75551700592041,8.999999999999999e-08,0.0,0.0,0.0,8.999999999999999e-08,0.0,0.0,0.0,8.999999999999999e-08
1676104290.8855643,6805,1676104290,879312256,base_link,0.05179205074257993,-0.018300155037985058,0.0394052803089575,-0.9977123362422546,1.0,0.0,0.0,0.0,1.0,0.0,0.0,0.0,1.0,0.00022004873608238995,0.00039155967533588404,-0.00040858658030629163,1.2184696791468346e-07,0.0,0.0,0.0,1.2184696791468346e-07,0.0,0.0,0.0,1.2184696791468346e-07,-0.32591602206230164,-1.0356003046035755,9.749481201171875,8.999999999999999e-08,0.0,0.0,0.0,8.999999999999999e-08,0.0,0.0,0.0,8.999999999999999e-08
1676104290.9051833,6806,1676104290,899314304,base_link,0.051803891372833456,-0.018304108939210986,0.03940742979823151,-0.99771161974583,1.0,0.0,0.0,0.0,1.0,0.0,0.0,0.0,1.0,0.0012443442828953266,0.0007803982589393853,-0.0009349067695438863,1.2184696791468346e-07,0.0,0.0,0.0,1.2184696791468346e-07,0.0,0.0,0.0,1.2184696791468346e-07,-0.31447407603263855,-1.0253067016601551,9.73522663116455,8.999999999999999e-08,0.0,0.0,0.0,8.999999999999999e-08,0.0,0.0,0.0,8.999999999999999e-08
1676104290.9250898,6807,1676104290,919314304,base_link,0.05179546068604226,-0.018304410552595643,0.03941168662993113,-0.9977118304800725,1.0,0.0,0.0,0.0,1.0,0.0,0.0,0.0,1.0,0.0026279378216713667,-6.007310003042231e-05,-0.0008350927382707596,1.2184696791468346e-07,0.0,0.0,0.0,1.2184696791468346e-07,0.0,0.0,0.0,1.2184696791468346e-07,-0.3247472643852234,-1.0204733610153187,9.761819839477539,8.999999999999999e-08,0.0,0.0,0.0,8.999999999999999e-08,0.0,0.0,0.0,8.999999999999999e-08
1676104290.9432003,6808,1676104290,939314304,base_link,0.05178842479651897,-0.018298812924277787,0.039409874315445154,-0.9977123783891031,1.0,0.0,0.0,0.0,1.0,0.0,0.0,0.0,1.0,-0.0003914869739674032,-0.0008830907754600048,0.0003312416374683381,1.2184696791468346e-07,0.0,0.0,0.0,1.2184696791468346e-07,0.0,0.0,0.0,1.2184696791468346e-07,-0.30463480949401855,-1.0233997106552113,9.726736068725586,8.999999999999999e-08,0.0,0.0,0.0,8.999999999999999e-08,0.0,0.0,0.0,8.999999999999999e-08
1676104290.9655101,6809,1676104290,959314304,base_link,0.05179602440014109,-0.018300211672812743,0.03942032673387584,-0.997711535452133,1.0,0.0,0.0,0.0,1.0,0.0,0.0,0.0,1.0,-2.3831147700548172e-05,0.001479624304920435,-0.0005124579183757307,1.2184696791468346e-07,0.0,0.0,0.0,1.2184696791468346e-07,0.0,0.0,0.0,1.2184696791468346e-07,-0.3253592550754547,-1.0550206899642933,9.758418083190918,8.999999999999999e-08,0.0,0.0,0.0,8.999999999999999e-08,0.0,0.0,0.0,8.999999999999999e-08
1676104290.9868932,6810,1676104290,980314304,base_link,0.05179902209474143,-0.018296897876848572,0.03941838797884439,-0.997711535452133,1.0,0.0,0.0,0.0,1.0,0.0,0.0,0.0,1.0,0.0015344221610575914,1.975684426724914e-05,0.00028595514595508575,1.2184696791468346e-07,0.0,0.0,0.0,1.2184696791468346e-07,0.0,0.0,0.0,1.2184696791468346e-07,-0.3351321816444397,-1.015239119529723,9.751530647277832,8.999999999999999e-08,0.0,0.0,0.0,8.999999999999999e-08,0.0,0.0,0.0,8.999999999999999e-08
1676104291.0060964,6811,1676104290,999315072,base_link,0.05178766483615676,-0.018291364785892505,0.03942100108345201,-0.9977121255080121,1.0,0.0,0.0,0.0,1.0,0.0,0.0,0.0,1.0,0.0007692188955843449,-0.0006480587180703878,-0.0002569067291915416,1.2184696791468346e-07,0.0,0.0,0.0,1.2184696791468346e-07,0.0,0.0,0.0,1.2184696791468346e-07,-0.3143351972103119,-1.0336281061172474,9.739571571350098,8.999999999999999e-08,0.0,0.0,0.0,8.999999999999999e-08,0.0,0.0,0.0,8.999999999999999e-08
1676104291.0254123,6812,1676104291,20315072,base_link,0.05179403032737092,-0.01829391862149446,0.03941720786708608,-0.9977118726269211,1.0,0.0,0.0,0.0,1.0,0.0,0.0,0.0,1.0,-0.0006496258429251611,0.00036859069950878626,0.0004290668293833732,1.2184696791468346e-07,0.0,0.0,0.0,1.2184696791468346e-07,0.0,0.0,0.0,1.2184696791468346e-07,-0.3104334771633148,-1.0347973108291615,9.743492126464844,8.999999999999999e-08,0.0,0.0,0.0,8.999999999999999e-08,0.0,0.0,0.0,8.999999999999999e-08
1676104291.0452285,6813,1676104291,40315072,base_link,0.051791621371560716,-0.018293682862560598,0.03942146469878564,-0.9977119147737695,1.0,0.0,0.0,0.0,1.0,0.0,0.0,0.0,1.0,-0.0018334238557145,-0.0005696471780538559,-8.977716788649552e-05,1.2184696791468346e-07,0.0,0.0,0.0,1.2184696791468346e-07,0.0,0.0,0.0,1.2184696791468346e-07,-0.3200550377368927,-1.035359501838683,9.733588218688965,8.999999999999999e-08,0.0,0.0,0.0,8.999999999999999e-08,0.0,0.0,0.0,8.999999999999999e-08
1676104291.0656438,6814,1676104291,60315072,base_link,0.051794944387148,-0.01828657716731947,0.03942449927187844,-0.9977117461863755,1.0,0.0,0.0,0.0,1.0,0.0,0.0,0.0,1.0,0.0009255438344553113,0.000807378673925996,0.0015837140381336212,1.2184696791468346e-07,0.0,0.0,0.0,1.2184696791468346e-07,0.0,0.0,0.0,1.2184696791468346e-07,-0.32286566495895386,-1.0291032791137684,9.753464698791504,8.999999999999999e-08,0.0,0.0,0.0,8.999999999999999e-08,0.0,0.0,0.0,8.999999999999999e-08
1676104291.0836022,6815,1676104291,80315072,base_link,0.05179230098949296,-0.01829360910557571,0.03942201260781628,-0.9977118726269211,1.0,0.0,0.0,0.0,1.0,0.0,0.0,0.0,1.0,0.0009699579095467925,2.457504160702216e-05,-0.001033226028084755,1.2184696791468346e-07,0.0,0.0,0.0,1.2184696791468346e-07,0.0,0.0,0.0,1.2184696791468346e-07,-0.31597188115119934,-1.0167961120605458,9.75344181060791,8.999999999999999e-08,0.0,0.0,0.0,8.999999999999999e-08,0.0,0.0,0.0,8.999999999999999e-08
1676104291.104545,6816,1676104291,100317632,base_link,0.051795004973242735,-0.018290325602658905,0.03942719667018314,-0.9977115775989814,1.0,0.0,0.0,0.0,1.0,0.0,0.0,0.0,1.0,0.0021837162785232067,-0.0009198545012623074,-0.001423983834683895,1.2184696791468346e-07,0.0,0.0,0.0,1.2184696791468346e-07,0.0,0.0,0.0,1.2184696791468346e-07,-0.3096839487552643,-1.0322009325027455,9.75806713104248,8.999999999999999e-08,0.0,0.0,0.0,8.999999999999999e-08,0.0,0.0,0.0,8.999999999999999e-08
1676104291.1254115,6817,1676104291,120317632,base_link,0.051797679981034156,-0.018292381578612824,0.039426943789092075,-0.9977113247178904,1.0,0.0,0.0,0.0,1.0,0.0,0.0,0.0,1.0,0.0002503802825231105,-4.006014205515374e-05,0.0008584484457969666,1.2184696791468346e-07,0.0,0.0,0.0,1.2184696791468346e-07,0.0,0.0,0.0,1.2184696791468346e-07,-0.3026512861251831,-1.030404210090636,9.745283126831055,8.999999999999999e-08,0.0,0.0,0.0,8.999999999999999e-08,0.0,0.0,0.0,8.999999999999999e-08
1676104291.1474233,6818,1676104291,140317632,base_link,0.05179766417596597,-0.018296190600047,0.03943128491448872,-0.9977111139836479,1.0,0.0,0.0,0.0,1.0,0.0,0.0,0.0,1.0,0.0007651605410501361,-0.00046349409967660915,-0.000978199765086174,1.2184696791468346e-07,0.0,0.0,0.0,1.2184696791468346e-07,0.0,0.0,0.0,1.2184696791468346e-07,-0.32026049494743347,-1.0264651775360096,9.761429786682129,8.999999999999999e-08,0.0,0.0,0.0,8.999999999999999e-08,0.0,0.0,0.0,8.999999999999999e-08
1676104291.1663713,6819,1676104291,160317632,base_link,0.05179680411683854,-0.018292577824876206,0.0394360053615219,-0.9977110296899508,1.0,0.0,0.0,0.0,1.0,0.0,0.0,0.0,1.0,0.001456056721508503,-0.0013359374133870006,-0.0003293785266578196,1.2184696791468346e-07,0.0,0.0,0.0,1.2184696791468346e-07,0.0,0.0,0.0,1.2184696791468346e-07,-0.3183000981807709,-1.0127450227737416,9.71316909790039,8.999999999999999e-08,0.0,0.0,0.0,8.999999999999999e-08,0.0,0.0,0.0,8.999999999999999e-08
1676104291.1856272,6820,1676104291,180317632,base_link,0.05179120648852069,-0.018288623923650278,0.03943954569679683,-0.9977112825710418,1.0,0.0,0.0,0.0,1.0,0.0,0.0,0.0,1.0,0.0019538039341568947,0.00039403280243277544,-0.000614263117313385,1.2184696791468346e-07,0.0,0.0,0.0,1.2184696791468346e-07,0.0,0.0,0.0,1.2184696791468346e-07,-0.3018728792667389,-1.0479460954666127,9.743918418884277,8.999999999999999e-08,0.0,0.0,0.0,8.999999999999999e-08,0.0,0.0,0.0,8.999999999999999e-08
1676104291.2056985,6821,1676104291,200319168,base_link,0.05179366154244645,-0.01828991467088592,0.03944350750055687,-0.9977109453962538,1.0,0.0,0.0,0.0,1.0,0.0,0.0,0.0,1.0,0.0005684861680492759,-0.0002508617471903562,0.00038919458165764814,1.2184696791468346e-07,0.0,0.0,0.0,1.2184696791468346e-07,0.0,0.0,0.0,1.2184696791468346e-07,-0.3281354010105133,-1.0258891582489003,9.714365005493164,8.999999999999999e-08,0.0,0.0,0.0,8.999999999999999e-08,0.0,0.0,0.0,8.999999999999999e-08
1676104291.2256122,6822,1676104291,220319168,base_link,0.05180243203820376,-0.018287834987329717,0.039442748857283674,-0.9977106082214657,1.0,0.0,0.0,0.0,1.0,0.0,0.0,0.0,1.0,0.0008494160138070583,-0.0005214527482166885,0.0008613364771008493,1.2184696791468346e-07,0.0,0.0,0.0,1.2184696791468346e-07,0.0,0.0,0.0,1.2184696791468346e-07,-0.3104984164237976,-1.0483288764953602,9.742107391357422,8.999999999999999e-08,0.0,0.0,0.0,8.999999999999999e-08,0.0,0.0,0.0,8.999999999999999e-08
1676104291.2444851,6823,1676104291,240319168,base_link,0.05180993154306067,-0.01829184684047235,0.03944177947976792,-0.997710144606132,1.0,0.0,0.0,0.0,1.0,0.0,0.0,0.0,1.0,-0.0007139482186175883,-0.00022953748703002916,0.001057364046573639,1.2184696791468346e-07,0.0,0.0,0.0,1.2184696791468346e-07,0.0,0.0,0.0,1.2184696791468346e-07,-0.3351990878582001,-1.014164090156554,9.751667976379395,8.999999999999999e-08,0.0,0.0,0.0,8.999999999999999e-08,0.0,0.0,0.0,8.999999999999999e-08
1676104291.2656374,6824,1676104291,260319168,base_link,0.05181010803298881,-0.018295795473342213,0.03944746930431686,-0.9977098495781925,1.0,0.0,0.0,0.0,1.0,0.0,0.0,0.0,1.0,0.0012334134662523866,0.0007059397175908089,4.3985899537801654e-05,1.2184696791468346e-07,0.0,0.0,0.0,1.2184696791468346e-07,0.0,0.0,0.0,1.2184696791468346e-07,-0.2971007823944092,-1.0349248647689808,9.758853912353516,8.999999999999999e-08,0.0,0.0,0.0,8.999999999999999e-08,0.0,0.0,0.0,8.999999999999999e-08
1676104291.286817,6825,1676104291,280319168,base_link,0.051801180803638595,-0.01829287943826086,0.039449113031408786,-0.9977103131935261,1.0,0.0,0.0,0.0,1.0,0.0,0.0,0.0,1.0,0.0005523042054846883,-0.0002834054175764321,0.0009172027930617332,1.2184696791468346e-07,0.0,0.0,0.0,1.2184696791468346e-07,0.0,0.0,0.0,1.2184696791468346e-07,-0.3258216381072998,-1.042612314224242,9.738741874694824,8.999999999999999e-08,0.0,0.0,0.0,8.999999999999999e-08,0.0,0.0,0.0,8.999999999999999e-08
1676104291.303645,6826,1676104291,300321728,base_link,0.05179971488356382,-0.018302669360916533,0.039445109080800296,-0.9977103553403747,1.0,0.0,0.0,0.0,1.0,0.0,0.0,0.0,1.0,0.0006762605626136065,0.0027647148817777634,0.0011407802812755104,1.2184696791468346e-07,0.0,0.0,0.0,1.2184696791468346e-07,0.0,0.0,0.0,1.2184696791468346e-07,-0.32059890031814575,-1.0351419448852528,9.750127792358398,8.999999999999999e-08,0.0,0.0,0.0,8.999999999999999e-08,0.0,0.0,0.0,8.999999999999999e-08
1676104291.3240643,6827,1676104291,320321728,base_link,0.05179864277310483,-0.01830313561042819,0.03944738501061983,-0.9977102710466776,1.0,0.0,0.0,0.0,1.0,0.0,0.0,0.0,1.0,0.00017179027781821787,0.0012490043882280588,-0.000737092923372984,1.2184696791468346e-07,0.0,0.0,0.0,1.2184696791468346e-07,0.0,0.0,0.0,1.2184696791468346e-07,-0.3253757357597351,-1.0368838310241688,9.755339622497559,8.999999999999999e-08,0.0,0.0,0.0,8.999999999999999e-08,0.0,0.0,0.0,8.999999999999999e-08
1676104291.346112,6828,1676104291,340321728,base_link,0.05180000859441439,-0.018301042755981815,0.03944144230497983,-0.9977104817809201,1.0,0.0,0.0,0.0,1.0,0.0,0.0,0.0,1.0,0.0016219993121922016,0.00012555648572742966,0.002323244698345661,1.2184696791468346e-07,0.0,0.0,0.0,1.2184696791468346e-07,0.0,0.0,0.0,1.2184696791468346e-07,-0.31141215562820435,-1.0261982679367054,9.757919311523438,8.999999999999999e-08,0.0,0.0,0.0,8.999999999999999e-08,0.0,0.0,0.0,8.999999999999999e-08
1676104291.3648615,6829,1676104291,360321728,base_link,0.051803390879007385,-0.018298182038639137,0.039444392584375605,-0.9977103131935261,1.0,0.0,0.0,0.0,1.0,0.0,0.0,0.0,1.0,0.0002416119968984276,-0.00046928902156651025,-0.00029840087518095965,1.2184696791468346e-07,0.0,0.0,0.0,1.2184696791468346e-07,0.0,0.0,0.0,1.2184696791468346e-07,-0.30601179599761963,-1.034841775894164,9.760420799255371,8.999999999999999e-08,0.0,0.0,0.0,8.999999999999999e-08,0.0,0.0,0.0,8.999999999999999e-08
1676104291.3862116,6830,1676104291,380321728,base_link,0.051796389233798514,-0.0182991935630034,0.03945096749274327,-0.9977103131935261,1.0,0.0,0.0,0.0,1.0,0.0,0.0,0.0,1.0,0.0004384884668979794,0.0002663021441549061,-0.0012393640354275703,1.2184696791468346e-07,0.0,0.0,0.0,1.2184696791468346e-07,0.0,0.0,0.0,1.2184696791468346e-07,-0.3043456971645355,-1.0153992176055897,9.758152961730957,8.999999999999999e-08,0.0,0.0,0.0,8.999999999999999e-08,0.0,0.0,0.0,8.999999999999999e-08
1676104291.4051328,6831,1676104291,400324544,base_link,0.05180045113632375,-0.01829652777483509,0.039452990541471805,-0.997710144606132,1.0,0.0,0.0,0.0,1.0,0.0,0.0,0.0,1.0,0.0006774322828277946,-0.0020174800883978605,0.0003330651670694354,1.2184696791468346e-07,0.0,0.0,0.0,1.2184696791468346e-07,0.0,0.0,0.0,1.2184696791468346e-07,-0.3234287202358246,-1.0380142927169789,9.741558074951172,8.999999999999999e-08,0.0,0.0,0.0,8.999999999999999e-08,0.0,0.0,0.0,8.999999999999999e-08
1676104291.4247112,6832,1676104291,420324544,base_link,0.05180259140597469,-0.018287838938596764,0.039453285569411384,-0.9977101867529806,1.0,0.0,0.0,0.0,1.0,0.0,0.0,0.0,1.0,0.0008529950864613056,-8.280156180262533e-06,0.0002571740187704563,1.2184696791468346e-07,0.0,0.0,0.0,1.2184696791468346e-07,0.0,0.0,0.0,1.2184696791468346e-07,-0.32742831110954285,-1.0208733081817616,9.745819091796875,8.999999999999999e-08,0.0,0.0,0.0,8.999999999999999e-08,0.0,0.0,0.0,8.999999999999999e-08
1676104291.4448876,6833,1676104291,440324544,base_link,0.051800669773100404,-0.01828494002567262,0.039450672464803695,-0.9977104396340717,1.0,0.0,0.0,0.0,1.0,0.0,0.0,0.0,1.0,0.002711355919018388,-0.0007838114397600292,0.0006011147052049638,1.2184696791468346e-07,0.0,0.0,0.0,1.2184696791468346e-07,0.0,0.0,0.0,1.2184696791468346e-07,-0.30543962121009827,-1.054860472679137,9.762775421142578,8.999999999999999e-08,0.0,0.0,0.0,8.999999999999999e-08,0.0,0.0,0.0,8.999999999999999e-08
1676104291.4660223,6834,1676104291,460324544,base_link,0.05179813305965565,-0.018281597253750104,0.039450714611652206,-0.9977106503683142,1.0,0.0,0.0,0.0,1.0,0.0,0.0,0.0,1.0,0.0007423580391332507,0.00011619995348155501,0.00018887920305132863,1.2184696791468346e-07,0.0,0.0,0.0,1.2184696791468346e-07,0.0,0.0,0.0,1.2184696791468346e-07,-0.3159833252429962,-1.0615919828414906,9.749775886535645,8.999999999999999e-08,0.0,0.0,0.0,8.999999999999999e-08,0.0,0.0,0.0,8.999999999999999e-08
1676104291.4870512,6835,1676104291,480324544,base_link,0.05179840569708195,-0.018286060868425207,0.03944772218540792,-0.9977106082214657,1.0,0.0,0.0,0.0,1.0,0.0,0.0,0.0,1.0,-0.00013863475760445,0.0004615939687937499,0.0007318812422454356,1.2184696791468346e-07,0.0,0.0,0.0,1.2184696791468346e-07,0.0,0.0,0.0,1.2184696791468346e-07,-0.3215878903865814,-1.049277901649474,9.736627578735352,8.999999999999999e-08,0.0,0.0,0.0,8.999999999999999e-08,0.0,0.0,0.0,8.999999999999999e-08
1676104291.506278,6836,1676104291,500327104,base_link,0.051802819262374455,-0.018289623594213395,0.039448818003469215,-0.9977102710466776,1.0,0.0,0.0,0.0,1.0,0.0,0.0,0.0,1.0,0.0005497179226949811,0.0012012354563921688,-0.0009390898048877717,1.2184696791468346e-07,0.0,0.0,0.0,1.2184696791468346e-07,0.0,0.0,0.0,1.2184696791468346e-07,-0.3260357081890106,-1.0127134323120106,9.733499526977539,8.999999999999999e-08,0.0,0.0,0.0,8.999999999999999e-08,0.0,0.0,0.0,8.999999999999999e-08
1676104291.5258734,6837,1676104291,520327104,base_link,0.05179665791995777,-0.018287065807344387,0.03945442353432118,-0.9977104817809201,1.0,0.0,0.0,0.0,1.0,0.0,0.0,0.0,1.0,-0.0005073489155620337,-0.0002486684825271368,-3.522681072354314e-05,1.2184696791468346e-07,0.0,0.0,0.0,1.2184696791468346e-07,0.0,0.0,0.0,1.2184696791468346e-07,-0.317346453666687,-1.0344420671463002,9.73584270477295,8.999999999999999e-08,0.0,0.0,0.0,8.999999999999999e-08,0.0,0.0,0.0,8.999999999999999e-08
1676104291.5454097,6838,1676104291,540327104,base_link,0.05179285416687966,-0.018292186649438467,0.03945277980722925,-0.9977106082214657,1.0,0.0,0.0,0.0,1.0,0.0,0.0,0.0,1.0,-0.00017701133037917316,0.0002351501025259495,0.00021480536088347432,1.2184696791468346e-07,0.0,0.0,0.0,1.2184696791468346e-07,0.0,0.0,0.0,1.2184696791468346e-07,-0.31092870235443115,-1.036936879158019,9.757902145385742,8.999999999999999e-08,0.0,0.0,0.0,8.999999999999999e-08,0.0,0.0,0.0,8.999999999999999e-08
1676104291.5649087,6839,1676104291,560327104,base_link,0.05178914787838874,-0.0182946812160347,0.039454634268563736,-0.9977106925151626,1.0,0.0,0.0,0.0,1.0,0.0,0.0,0.0,1.0,0.0009385019075125456,0.0012026547919958828,-0.0015363264828920367,1.2184696791468346e-07,0.0,0.0,0.0,1.2184696791468346e-07,0.0,0.0,0.0,1.2184696791468346e-07,-0.31253644824028015,-1.0372873544692982,9.73753833770752,8.999999999999999e-08,0.0,0.0,0.0,8.999999999999999e-08,0.0,0.0,0.0,8.999999999999999e-08
1676104291.5850737,6840,1676104291,580327104,base_link,0.05179427794010592,-0.01828434075017036,0.03945543505868545,-0.9977105660746172,1.0,0.0,0.0,0.0,1.0,0.0,0.0,0.0,1.0,-0.0015865437453612685,-0.001092956052161753,0.00174790108576417,1.2184696791468346e-07,0.0,0.0,0.0,1.2184696791468346e-07,0.0,0.0,0.0,1.2184696791468346e-07,-0.31236717104911804,-1.037482738494872,9.734634399414062,8.999999999999999e-08,0.0,0.0,0.0,8.999999999999999e-08,0.0,0.0,0.0,8.999999999999999e-08
1676104291.604934,6841,1676104291,600329664,base_link,0.05180525719414301,-0.01828664829012633,0.03946179923281057,-0.9977096809907985,1.0,0.0,0.0,0.0,1.0,0.0,0.0,0.0,1.0,-0.0004090189468115568,0.0010411117691546676,-0.0012194351293146612,1.2184696791468346e-07,0.0,0.0,0.0,1.2184696791468346e-07,0.0,0.0,0.0,1.2184696791468346e-07,-0.3255137503147125,-1.0185178518295277,9.745102882385254,8.999999999999999e-08,0.0,0.0,0.0,8.999999999999999e-08,0.0,0.0,0.0,8.999999999999999e-08
1676104291.6259544,6842,1676104291,620329664,base_link,0.05181243796345805,-0.0182823809217146,0.039460366239961187,-0.9977095124034044,1.0,0.0,0.0,0.0,1.0,0.0,0.0,0.0,1.0,-0.00021329137962311506,8.52386001497508e-05,0.0008003008551895618,1.2184696791468346e-07,0.0,0.0,0.0,1.2184696791468346e-07,0.0,0.0,0.0,1.2184696791468346e-07,-0.31453970074653625,-1.0328494310379017,9.752227783203125,8.999999999999999e-08,0.0,0.0,0.0,8.999999999999999e-08,0.0,0.0,0.0,8.999999999999999e-08
1676104291.6453125,6843,1676104291,640329664,base_link,0.05180951270875359,-0.01828421562671384,0.03946255787608376,-0.9977095124034044,1.0,0.0,0.0,0.0,1.0,0.0,0.0,0.0,1.0,0.0015264202374964952,0.0005652378313243388,-0.0010523977689445019,1.2184696791468346e-07,0.0,0.0,0.0,1.2184696791468346e-07,0.0,0.0,0.0,1.2184696791468346e-07,-0.3101605176925659,-1.0376304388046254,9.733461380004883,8.999999999999999e-08,0.0,0.0,0.0,8.999999999999999e-08,0.0,0.0,0.0,8.999999999999999e-08
1676104291.6636968,6844,1676104291,660329664,base_link,0.05180998027535426,-0.018280882074414435,0.039461293470628434,-0.9977095966971015,1.0,0.0,0.0,0.0,1.0,0.0,0.0,0.0,1.0,0.001270652050152421,-0.0007096173940226436,-0.0002026353031396865,1.2184696791468346e-07,0.0,0.0,0.0,1.2184696791468346e-07,0.0,0.0,0.0,1.2184696791468346e-07,-0.3095504939556122,-1.0417089462280262,9.74621868133545,8.999999999999999e-08,0.0,0.0,0.0,8.999999999999999e-08,0.0,0.0,0.0,8.999999999999999e-08
1676104291.687901,6845,1676104291,680329664,base_link,0.05180672969966286,-0.018283100052317317,0.039460281946264164,-0.9977097652844955,1.0,0.0,0.0,0.0,1.0,0.0,0.0,0.0,1.0,0.0026147952303290367,0.00034913490526378155,3.148615360260006e-05,1.2184696791468346e-07,0.0,0.0,0.0,1.2184696791468346e-07,0.0,0.0,0.0,1.2184696791468346e-07,-0.34546467661857605,-1.0395117998123158,9.739827156066895,8.999999999999999e-08,0.0,0.0,0.0,8.999999999999999e-08,0.0,0.0,0.0,8.999999999999999e-08
1676104291.7046375,6846,1676104291,700332224,base_link,0.051801877543728045,-0.018289216613707464,0.03946217855444716,-0.997709807431344,1.0,0.0,0.0,0.0,1.0,0.0,0.0,0.0,1.0,0.002243450377136469,-0.00027253152802586566,-0.001098481472581625,1.2184696791468346e-07,0.0,0.0,0.0,1.2184696791468346e-07,0.0,0.0,0.0,1.2184696791468346e-07,-0.31103408336639404,-1.024851918220519,9.743854522705078,8.999999999999999e-08,0.0,0.0,0.0,8.999999999999999e-08,0.0,0.0,0.0,8.999999999999999e-08
1676104291.7251341,6847,1676104291,720332224,base_link,0.05179562795634728,-0.018294349309602678,0.03946698329517742,-0.997709891725041,1.0,0.0,0.0,0.0,1.0,0.0,0.0,0.0,1.0,0.0013214813079684973,0.0008514537476003168,-0.0019388562068343163,1.2184696791468346e-07,0.0,0.0,0.0,1.2184696791468346e-07,0.0,0.0,0.0,1.2184696791468346e-07,-0.3128218352794647,-1.033148407936095,9.747078895568848,8.999999999999999e-08,0.0,0.0,0.0,8.999999999999999e-08,0.0,0.0,0.0,8.999999999999999e-08
1676104291.7457151,6848,1676104291,740332224,base_link,0.05180161676010288,-0.01829458770271457,0.039466140358207204,-0.9977095545502529,1.0,0.0,0.0,0.0,1.0,0.0,0.0,0.0,1.0,0.0007833004929125309,0.0009936837013810875,0.0012277485802769659,1.2184696791468346e-07,0.0,0.0,0.0,1.2184696791468346e-07,0.0,0.0,0.0,1.2184696791468346e-07,-0.30846717953681946,-1.0362722873687733,9.759981155395508,8.999999999999999e-08,0.0,0.0,0.0,8.999999999999999e-08,0.0,0.0,0.0,8.999999999999999e-08
1676104291.7653968,6849,1676104291,760332224,base_link,0.051807269706159405,-0.018295082928184575,0.0394638222815391,-0.9977093438160104,1.0,0.0,0.0,0.0,1.0,0.0,0.0,0.0,1.0,-0.00015916017582640052,-0.0002786591649055481,-0.0001511992886662483,1.2184696791468346e-07,0.0,0.0,0.0,1.2184696791468346e-07,0.0,0.0,0.0,1.2184696791468346e-07,-0.3164384961128235,-1.0532715320587147,9.756352424621582,8.999999999999999e-08,0.0,0.0,0.0,8.999999999999999e-08,0.0,0.0,0.0,8.999999999999999e-08
1676104291.7864218,6850,1676104291,780332224,base_link,0.05181006325196227,-0.018297699984059293,0.03946681470778338,-0.9977090487880708,1.0,0.0,0.0,0.0,1.0,0.0,0.0,0.0,1.0,0.0009277077624574304,0.00041156145744025696,-0.0008857161737978458,1.2184696791468346e-07,0.0,0.0,0.0,1.2184696791468346e-07,0.0,0.0,0.0,1.2184696791468346e-07,-0.3278902769088745,-1.0270980596542347,9.750701904296875,8.999999999999999e-08,0.0,0.0,0.0,8.999999999999999e-08,0.0,0.0,0.0,8.999999999999999e-08
1676104291.805718,6851,1676104291,795335040,base_link,0.051813374413748406,-0.018295210685819123,0.039465213127539964,-0.9977089644943737,1.0,0.0,0.0,0.0,1.0,0.0,0.0,0.0,1.0,0.0010191717883571982,0.0002752481959760188,-0.0010528601706027985,1.2184696791468346e-07,0.0,0.0,0.0,1.2184696791468346e-07,0.0,0.0,0.0,1.2184696791468346e-07,-0.3007219433784485,-1.0396951436996449,9.756871223449707,8.999999999999999e-08,0.0,0.0,0.0,8.999999999999999e-08,0.0,0.0,0.0,8.999999999999999e-08
1676104291.8246949,6852,1676104291,820335040,base_link,0.05180763717399486,-0.018293171832022406,0.03947680351088045,-0.9977088380538283,1.0,0.0,0.0,0.0,1.0,0.0,0.0,0.0,1.0,-0.0006358986720442772,0.0009565902873873708,-0.0014121332205832007,1.2184696791468346e-07,0.0,0.0,0.0,1.2184696791468346e-07,0.0,0.0,0.0,1.2184696791468346e-07,-0.32664376497268677,-1.0299336910247792,9.74560260772705,8.999999999999999e-08,0.0,0.0,0.0,8.999999999999999e-08,0.0,0.0,0.0,8.999999999999999e-08
1676104291.8461583,6853,1676104291,840335040,base_link,0.05181580576007187,-0.018290250528584993,0.0394796694965792,-0.9977083322916461,1.0,0.0,0.0,0.0,1.0,0.0,0.0,0.0,1.0,-0.0002398018114035949,-3.9100181311369e-05,-0.0004908768460154533,1.2184696791468346e-07,0.0,0.0,0.0,1.2184696791468346e-07,0.0,0.0,0.0,1.2184696791468346e-07,-0.3438742756843567,-1.0391048192977894,9.732687950134277,8.999999999999999e-08,0.0,0.0,0.0,8.999999999999999e-08,0.0,0.0,0.0,8.999999999999999e-08
1676104291.8651032,6854,1676104291,855335040,base_link,0.051812491964107706,-0.01828639409194625,0.039477014245123,-0.9977087116132827,1.0,0.0,0.0,0.0,1.0,0.0,0.0,0.0,1.0,0.001556352712213993,-7.629464380443095e-05,0.00016427971422672272,1.2184696791468346e-07,0.0,0.0,0.0,1.2184696791468346e-07,0.0,0.0,0.0,1.2184696791468346e-07,-0.30813559889793396,-1.0360369682312,9.749835968017578,8.999999999999999e-08,0.0,0.0,0.0,8.999999999999999e-08,0.0,0.0,0.0,8.999999999999999e-08
1676104291.8857355,6855,1676104291,880335040,base_link,0.05180666647939009,-0.018284201138734663,0.03948047028670091,-0.9977088802006767,1.0,0.0,0.0,0.0,1.0,0.0,0.0,0.0,1.0,0.0006056998390704393,-0.0006829258054494858,7.467810064554223e-05,1.2184696791468346e-07,0.0,0.0,0.0,1.2184696791468346e-07,0.0,0.0,0.0,1.2184696791468346e-07,-0.31651541590690613,-1.0396194458007801,9.747299194335938,8.999999999999999e-08,0.0,0.0,0.0,8.999999999999999e-08,0.0,0.0,0.0,8.999999999999999e-08
1676104291.9064217,6856,1676104291,901337600,base_link,0.05180576163923612,-0.018274679902238255,0.03948143966421667,-0.9977090909349193,1.0,0.0,0.0,0.0,1.0,0.0,0.0,0.0,1.0,0.0002466194855514914,-6.292248144745824e-05,0.0002641542814671993,1.2184696791468346e-07,0.0,0.0,0.0,1.2184696791468346e-07,0.0,0.0,0.0,1.2184696791468346e-07,-0.3192279040813446,-1.0338900089263905,9.747950553894043,8.999999999999999e-08,0.0,0.0,0.0,8.999999999999999e-08,0.0,0.0,0.0,8.999999999999999e-08
1676104291.9254413,6857,1676104291,921337600,base_link,0.05179879818960872,-0.018268461924993876,0.03947945876233664,-0.9977097231376469,1.0,0.0,0.0,0.0,1.0,0.0,0.0,0.0,1.0,0.002663929248228669,0.00023141200654208666,0.0004551084712147712,1.2184696791468346e-07,0.0,0.0,0.0,1.2184696791468346e-07,0.0,0.0,0.0,1.2184696791468346e-07,-0.30878570675849915,-1.037893533706664,9.753567695617676,8.999999999999999e-08,0.0,0.0,0.0,8.999999999999999e-08,0.0,0.0,0.0,8.999999999999999e-08
1676104291.9453623,6858,1676104291,941337600,base_link,0.05179869282248744,-0.018272281483140182,0.03948325197870264,-0.9977094702565559,1.0,0.0,0.0,0.0,1.0,0.0,0.0,0.0,1.0,0.0008226574864238501,0.0007984153926372528,0.0003678724169731139,1.2184696791468346e-07,0.0,0.0,0.0,1.2184696791468346e-07,0.0,0.0,0.0,1.2184696791468346e-07,-0.31512778997421265,-1.0532844066619862,9.735859870910645,8.999999999999999e-08,0.0,0.0,0.0,8.999999999999999e-08,0.0,0.0,0.0,8.999999999999999e-08
1676104291.9653797,6859,1676104291,961337600,base_link,0.05179336388032884,-0.018277620962010906,0.0394823247480354,-0.9977096388439499,1.0,0.0,0.0,0.0,1.0,0.0,0.0,0.0,1.0,0.0016897744499146938,0.0012985316570848227,-0.0007670461200177671,1.2184696791468346e-07,0.0,0.0,0.0,1.2184696791468346e-07,0.0,0.0,0.0,1.2184696791468346e-07,-0.31221768260002136,-1.0264629125595082,9.766366958618164,8.999999999999999e-08,0.0,0.0,0.0,8.999999999999999e-08,0.0,0.0,0.0,8.999999999999999e-08
1676104291.984015,6860,1676104291,976337600,base_link,0.051792786995339846,-0.01828289722060886,0.03948632869864395,-0.9977094281097074,1.0,0.0,0.0,0.0,1.0,0.0,0.0,0.0,1.0,-0.0007701576687395573,3.5100616514682634e-05,-0.0011215880513191223,1.2184696791468346e-07,0.0,0.0,0.0,1.2184696791468346e-07,0.0,0.0,0.0,1.2184696791468346e-07,-0.33776840567588806,-1.0310239791870106,9.751338005065918,8.999999999999999e-08,0.0,0.0,0.0,8.999999999999999e-08,0.0,0.0,0.0,8.999999999999999e-08
1676104292.005193,6861,1676104292,1339904,base_link,0.05180793088484542,-0.018285091490909462,0.03948894180325158,-0.9977085008790402,1.0,0.0,0.0,0.0,1.0,0.0,0.0,0.0,1.0,-0.0005150530487298965,0.00041272933594882483,-0.00028412230312824255,1.2184696791468346e-07,0.0,0.0,0.0,1.2184696791468346e-07,0.0,0.0,0.0,1.2184696791468346e-07,-0.33927208185195923,-1.0309137105941761,9.749104499816895,8.999999999999999e-08,0.0,0.0,0.0,8.999999999999999e-08,0.0,0.0,0.0,8.999999999999999e-08
1676104292.0258892,6862,1676104292,16339904,base_link,0.05181200859243885,-0.018285428665697545,0.039488351747372426,-0.9977083322916461,1.0,0.0,0.0,0.0,1.0,0.0,0.0,0.0,1.0,-0.00037859013536944985,-0.000943209044635296,-0.00118565559387207,1.2184696791468346e-07,0.0,0.0,0.0,1.2184696791468346e-07,0.0,0.0,0.0,1.2184696791468346e-07,-0.3182801604270935,-1.0306688547134388,9.76168155670166,8.999999999999999e-08,0.0,0.0,0.0,8.999999999999999e-08,0.0,0.0,0.0,8.999999999999999e-08
1676104292.0454962,6863,1676104292,41339904,base_link,0.05180901748328359,-0.018287071075700455,0.03948569649591629,-0.9977085430258886,1.0,0.0,0.0,0.0,1.0,0.0,0.0,0.0,1.0,0.0008640028536319733,0.0009828782640397549,0.00023414473980665196,1.2184696791468346e-07,0.0,0.0,0.0,1.2184696791468346e-07,0.0,0.0,0.0,1.2184696791468346e-07,-0.3113132119178772,-1.0345728397369374,9.751473426818848,8.999999999999999e-08,0.0,0.0,0.0,8.999999999999999e-08,0.0,0.0,0.0,8.999999999999999e-08
1676104292.0658553,6864,1676104292,61339904,base_link,0.051804916068087875,-0.018285645985385176,0.039482661922823487,-0.9977088802006768,1.0,0.0,0.0,0.0,1.0,0.0,0.0,0.0,1.0,0.0009658574126660824,-0.0005747664254158734,0.0006061210297048093,1.2184696791468346e-07,0.0,0.0,0.0,1.2184696791468346e-07,0.0,0.0,0.0,1.2184696791468346e-07,-0.2916000187397003,-1.023982524871825,9.751008987426758,8.999999999999999e-08,0.0,0.0,0.0,8.999999999999999e-08,0.0,0.0,0.0,8.999999999999999e-08
1676104292.0860035,6865,1676104292,81339904,base_link,0.05180050777115144,-0.018294527116619833,0.03948122892997411,-0.9977090487880708,1.0,0.0,0.0,0.0,1.0,0.0,0.0,0.0,1.0,0.0014371757861226797,0.0013413536362349987,0.00024350546300411208,1.2184696791468346e-07,0.0,0.0,0.0,1.2184696791468346e-07,0.0,0.0,0.0,1.2184696791468346e-07,-0.2984500527381897,-1.0536047220230091,9.749921798706055,8.999999999999999e-08,0.0,0.0,0.0,8.999999999999999e-08,0.0,0.0,0.0,8.999999999999999e-08
1676104292.1030807,6866,1676104292,96341952,base_link,0.0517963800141754,-0.018292190600705516,0.039478025769487265,-0.9977093859628589,1.0,0.0,0.0,0.0,1.0,0.0,0.0,0.0,1.0,0.0012021398870274425,0.00031873327679932107,-0.0006791357882320881,1.2184696791468346e-07,0.0,0.0,0.0,1.2184696791468346e-07,0.0,0.0,0.0,1.2184696791468346e-07,-0.32029014825820923,-1.037265896797179,9.751191139221191,8.999999999999999e-08,0.0,0.0,0.0,8.999999999999999e-08,0.0,0.0,0.0,8.999999999999999e-08
1676104292.125909,6867,1676104292,121341952,base_link,0.05179488248396425,-0.018295595275811784,0.03947794147579024,-0.9977094702565559,1.0,0.0,0.0,0.0,1.0,0.0,0.0,0.0,1.0,0.00011415165499784052,0.0005502381827682257,8.439505472779267e-05,1.2184696791468346e-07,0.0,0.0,0.0,1.2184696791468346e-07,0.0,0.0,0.0,1.2184696791468346e-07,-0.31906718015670776,-1.0092893838882435,9.758879661560059,8.999999999999999e-08,0.0,0.0,0.0,8.999999999999999e-08,0.0,0.0,0.0,8.999999999999999e-08
1676104292.146466,6868,1676104292,136341952,base_link,0.051793129438484,-0.018295056586404252,0.039482704069672,-0.9977093438160104,1.0,0.0,0.0,0.0,1.0,0.0,0.0,0.0,1.0,0.001746289199218154,0.0011299464385956524,-0.0014890655875205996,1.2184696791468346e-07,0.0,0.0,0.0,1.2184696791468346e-07,0.0,0.0,0.0,1.2184696791468346e-07,-0.31485703587532043,-1.034179687499999,9.747954368591309,8.999999999999999e-08,0.0,0.0,0.0,8.999999999999999e-08,0.0,0.0,0.0,8.999999999999999e-08
1676104292.1656919,6869,1676104292,161341952,base_link,0.05179351534556568,-0.018292752997715326,0.039486160111249904,-0.9977092595223134,1.0,0.0,0.0,0.0,1.0,0.0,0.0,0.0,1.0,0.0007690666243433952,-0.000471408013254404,0.0006358367390930654,1.2184696791468346e-07,0.0,0.0,0.0,1.2184696791468346e-07,0.0,0.0,0.0,1.2184696791468346e-07,-0.31781455874443054,-1.050198197364806,9.758084297180176,8.999999999999999e-08,0.0,0.0,0.0,8.999999999999999e-08,0.0,0.0,0.0,8.999999999999999e-08
1676104292.1847124,6870,1676104292,176341952,base_link,0.051789479784820756,-0.018292700314154694,0.03947633989554682,-0.997709807431344,1.0,0.0,0.0,0.0,1.0,0.0,0.0,0.0,1.0,-0.0008921888656914234,-0.0007632959168404343,-0.0015785843133926392,1.2184696791468346e-07,0.0,0.0,0.0,1.2184696791468346e-07,0.0,0.0,0.0,1.2184696791468346e-07,-0.33331674337387085,-1.023327589035033,9.737638473510742,8.999999999999999e-08,0.0,0.0,0.0,8.999999999999999e-08,0.0,0.0,0.0,8.999999999999999e-08
1676104292.2047753,6871,1676104292,196344256,base_link,0.05179185844758359,-0.01828212935771255,0.03947692995142598,-0.997709891725041,1.0,0.0,0.0,0.0,1.0,0.0,0.0,0.0,1.0,0.0024585644714534283,-0.0005791328148916364,0.00012453366070985802,1.2184696791468346e-07,0.0,0.0,0.0,1.2184696791468346e-07,0.0,0.0,0.0,1.2184696791468346e-07,-0.31298014521598816,-1.0272552967071522,9.716404914855957,8.999999999999999e-08,0.0,0.0,0.0,8.999999999999999e-08,0.0,0.0,0.0,8.999999999999999e-08
1676104292.2241287,6872,1676104292,221344256,base_link,0.05179258416363139,-0.01828281029273381,0.03947427469996978,-0.9977099338718896,1.0,0.0,0.0,0.0,1.0,0.0,0.0,0.0,1.0,0.002293454250320792,0.0004355672281235457,0.0005453932099044323,1.2184696791468346e-07,0.0,0.0,0.0,1.2184696791468346e-07,0.0,0.0,0.0,1.2184696791468346e-07,-0.30281490087509155,-1.0305008888244618,9.731825828552246,8.999999999999999e-08,0.0,0.0,0.0,8.999999999999999e-08,0.0,0.0,0.0,8.999999999999999e-08
1676104292.2452695,6873,1676104292,241344256,base_link,0.05179340602717735,-0.01827470756110759,0.039469764987179155,-0.9977102288998291,1.0,0.0,0.0,0.0,1.0,0.0,0.0,0.0,1.0,0.0013415851863101125,-0.0003636993933469057,1.2718141078949019e-05,1.2184696791468346e-07,0.0,0.0,0.0,1.2184696791468346e-07,0.0,0.0,0.0,1.2184696791468346e-07,-0.30762621760368347,-1.049867033958434,9.743642807006836,8.999999999999999e-08,0.0,0.0,0.0,8.999999999999999e-08,0.0,0.0,0.0,8.999999999999999e-08
1676104292.267905,6874,1676104292,256344256,base_link,0.05179114195115891,-0.018277914672861464,0.03946984928087618,-0.9977103131935261,1.0,0.0,0.0,0.0,1.0,0.0,0.0,0.0,1.0,-0.00038257642881944776,0.000824014889076352,-0.0007064105011522771,1.2184696791468346e-07,0.0,0.0,0.0,1.2184696791468346e-07,0.0,0.0,0.0,1.2184696791468346e-07,-0.31601592898368835,-1.030670642852782,9.744255065917969,8.999999999999999e-08,0.0,0.0,0.0,8.999999999999999e-08,0.0,0.0,0.0,8.999999999999999e-08
1676104292.287447,6875,1676104292,281344256,base_link,0.05180041557492032,-0.018288997976930812,0.039472083063847266,-0.9977095124034044,1.0,0.0,0.0,0.0,1.0,0.0,0.0,0.0,1.0,5.109861376695335e-05,0.0005370522849261762,0.0006470526568591594,1.2184696791468346e-07,0.0,0.0,0.0,1.2184696791468346e-07,0.0,0.0,0.0,1.2184696791468346e-07,-0.29774782061576843,-1.0387866497039784,9.742353439331055,8.999999999999999e-08,0.0,0.0,0.0,8.999999999999999e-08,0.0,0.0,0.0,8.999999999999999e-08
1676104292.3047698,6876,1676104292,301346560,base_link,0.0517920902552504,-0.018290590337551114,0.039464875952751874,-0.997710144606132,1.0,0.0,0.0,0.0,1.0,0.0,0.0,0.0,1.0,0.0033797386568039656,-0.0007478153565898537,0.001159823965281248,1.2184696791468346e-07,0.0,0.0,0.0,1.2184696791468346e-07,0.0,0.0,0.0,1.2184696791468346e-07,-0.3203742206096649,-1.0135735273361195,9.72388744354248,8.999999999999999e-08,0.0,0.0,0.0,8.999999999999999e-08,0.0,0.0,0.0,8.999999999999999e-08
1676104292.323291,6877,1676104292,316346560,base_link,0.05178383605838735,-0.01828881358446858,0.03947022860251277,-0.9977104396340717,1.0,0.0,0.0,0.0,1.0,0.0,0.0,0.0,1.0,0.002506641671061516,0.00020292890258133417,0.00043109990656375885,1.2184696791468346e-07,0.0,0.0,0.0,1.2184696791468346e-07,0.0,0.0,0.0,1.2184696791468346e-07,-0.318143755197525,-1.03753900527954,9.768294334411621,8.999999999999999e-08,0.0,0.0,0.0,8.999999999999999e-08,0.0,0.0,0.0,8.999999999999999e-08
1676104292.345021,6878,1676104292,341346560,base_link,0.05177989532805158,-0.018291547861265724,0.039474443287363825,-0.9977104396340717,1.0,0.0,0.0,0.0,1.0,0.0,0.0,0.0,1.0,0.00102499988861382,-0.0016713428776711226,-0.0004662955179810522,1.2184696791468346e-07,0.0,0.0,0.0,1.2184696791468346e-07,0.0,0.0,0.0,1.2184696791468346e-07,-0.32383236289024353,-1.0385116338729847,9.7481689453125,8.999999999999999e-08,0.0,0.0,0.0,8.999999999999999e-08,0.0,0.0,0.0,8.999999999999999e-08
1676104292.3644059,6879,1676104292,356346560,base_link,0.051786061938824325,-0.018282683852188272,0.03947524407748554,-0.9977102288998291,1.0,0.0,0.0,0.0,1.0,0.0,0.0,0.0,1.0,0.0005903895944356918,-0.001136425998993218,-0.000540714245289564,1.2184696791468346e-07,0.0,0.0,0.0,1.2184696791468346e-07,0.0,0.0,0.0,1.2184696791468346e-07,-0.32674673199653625,-1.0193947553634632,9.751635551452637,8.999999999999999e-08,0.0,0.0,0.0,8.999999999999999e-08,0.0,0.0,0.0,8.999999999999999e-08
1676104292.385529,6880,1676104292,381346560,base_link,0.051796495918008806,-0.01828662194834601,0.039469764987179155,-0.997709807431344,1.0,0.0,0.0,0.0,1.0,0.0,0.0,0.0,1.0,7.069981074891984e-05,0.0006313207559287549,0.0009552291594445704,1.2184696791468346e-07,0.0,0.0,0.0,1.2184696791468346e-07,0.0,0.0,0.0,1.2184696791468346e-07,-0.3282560408115387,-1.0356823205947865,9.750435829162598,8.999999999999999e-08,0.0,0.0,0.0,8.999999999999999e-08,0.0,0.0,0.0,8.999999999999999e-08
1676104292.40559,6881,1676104292,401348608,base_link,0.05180225027991956,-0.0182867365350904,0.03946146205802248,-0.9977098495781925,1.0,0.0,0.0,0.0,1.0,0.0,0.0,0.0,1.0,0.000149386323755607,0.00015351618640124811,0.001157836988568306,1.2184696791468346e-07,0.0,0.0,0.0,1.2184696791468346e-07,0.0,0.0,0.0,1.2184696791468346e-07,-0.31691333651542664,-1.0227843523025502,9.742729187011719,8.999999999999999e-08,0.0,0.0,0.0,8.999999999999999e-08,0.0,0.0,0.0,8.999999999999999e-08
1676104292.4240828,6882,1676104292,416348608,base_link,0.05180144817270883,-0.018282976245949815,0.0394548871496548,-0.9977101867529805,1.0,0.0,0.0,0.0,1.0,0.0,0.0,0.0,1.0,0.00035727504291571677,0.0008003213442862035,0.0007463102228939532,1.2184696791468346e-07,0.0,0.0,0.0,1.2184696791468346e-07,0.0,0.0,0.0,1.2184696791468346e-07,-0.32721439003944397,-1.0223935842514027,9.738932609558105,8.999999999999999e-08,0.0,0.0,0.0,8.999999999999999e-08,0.0,0.0,0.0,8.999999999999999e-08
1676104292.4461577,6883,1676104292,441348608,base_link,0.051792931875131606,-0.018280892611126556,0.03945151540177392,-0.9977108611025568,1.0,0.0,0.0,0.0,1.0,0.0,0.0,0.0,1.0,-0.0007578268414363265,-0.0003310106694698335,-0.0007009902037680149,1.2184696791468346e-07,0.0,0.0,0.0,1.2184696791468346e-07,0.0,0.0,0.0,1.2184696791468346e-07,-0.29740092158317566,-1.0210888385772694,9.739524841308594,8.999999999999999e-08,0.0,0.0,0.0,8.999999999999999e-08,0.0,0.0,0.0,8.999999999999999e-08
1676104292.4631493,6884,1676104292,456348608,base_link,0.05179154234621976,-0.01827802003998274,0.03944544625558838,-0.9977111982773449,1.0,0.0,0.0,0.0,1.0,0.0,0.0,0.0,1.0,0.0003974314604420215,0.001686668489128351,-0.0013606809079647066,1.2184696791468346e-07,0.0,0.0,0.0,1.2184696791468346e-07,0.0,0.0,0.0,1.2184696791468346e-07,-0.30197834968566895,-1.0344660282134999,9.744535446166992,8.999999999999999e-08,0.0,0.0,0.0,8.999999999999999e-08,0.0,0.0,0.0,8.999999999999999e-08
1676104292.4865012,6885,1676104292,481348608,base_link,0.05179148439430306,-0.01827140825312259,0.03944236953564707,-0.9977114933052844,1.0,0.0,0.0,0.0,1.0,0.0,0.0,0.0,1.0,3.2734329579398036e-05,-0.0012654283782467246,0.0006883419118821622,1.2184696791468346e-07,0.0,0.0,0.0,1.2184696791468346e-07,0.0,0.0,0.0,1.2184696791468346e-07,-0.31596025824546814,-1.0420098304748524,9.75832462310791,8.999999999999999e-08,0.0,0.0,0.0,8.999999999999999e-08,0.0,0.0,0.0,8.999999999999999e-08
1676104292.5041008,6886,1676104292,496351168,base_link,0.051792340502163435,-0.018273481351233727,0.039439419256251294,-0.9977114933052844,1.0,0.0,0.0,0.0,1.0,0.0,0.0,0.0,1.0,0.0016037619207054377,-0.0002753145527094602,0.0003355205990374089,1.2184696791468346e-07,0.0,0.0,0.0,1.2184696791468346e-07,0.0,0.0,0.0,1.2184696791468346e-07,-0.3073500692844391,-1.034284234046935,9.736701965332031,8.999999999999999e-08,0.0,0.0,0.0,8.999999999999999e-08,0.0,0.0,0.0,8.999999999999999e-08
1676104292.524245,6887,1676104292,521351168,base_link,0.05177780379069422,-0.01827541088664211,0.03943659541740105,-0.9977123783891032,1.0,0.0,0.0,0.0,1.0,0.0,0.0,0.0,1.0,0.0027593059930950403,-0.0005394738400354981,0.00031906832009553915,1.2184696791468346e-07,0.0,0.0,0.0,1.2184696791468346e-07,0.0,0.0,0.0,1.2184696791468346e-07,-0.31513145565986633,-1.0326954126358021,9.73593807220459,8.999999999999999e-08,0.0,0.0,0.0,8.999999999999999e-08,0.0,0.0,0.0,8.999999999999999e-08
1676104292.545004,6888,1676104292,541351168,base_link,0.05177287260941845,-0.018274362483785403,0.039431032033397644,-0.9977127998575883,1.0,0.0,0.0,0.0,1.0,0.0,0.0,0.0,1.0,0.00032066190033219755,-0.0003781765699386596,0.0004139160737395287,1.2184696791468346e-07,0.0,0.0,0.0,1.2184696791468346e-07,0.0,0.0,0.0,1.2184696791468346e-07,-0.32915669679641724,-1.0477930307388295,9.767735481262207,8.999999999999999e-08,0.0,0.0,0.0,8.999999999999999e-08,0.0,0.0,0.0,8.999999999999999e-08
1676104292.5660524,6889,1676104292,561351168,base_link,0.05177131581020158,-0.018266399363594876,0.03942723881703165,-0.9977132213260733,1.0,0.0,0.0,0.0,1.0,0.0,0.0,0.0,1.0,0.0002485727600287646,0.0005669866222888232,0.0013028252869844437,1.2184696791468346e-07,0.0,0.0,0.0,1.2184696791468346e-07,0.0,0.0,0.0,1.2184696791468346e-07,-0.3345273435115814,-1.017684221267699,9.73281192779541,8.999999999999999e-08,0.0,0.0,0.0,8.999999999999999e-08,0.0,0.0,0.0,8.999999999999999e-08
1676104292.58691,6890,1676104292,576351168,base_link,0.05177649460421235,-0.018266720733314774,0.039428587516184006,-0.9977128841512852,1.0,0.0,0.0,0.0,1.0,0.0,0.0,0.0,1.0,0.0009125737706199288,-0.0007648486644029618,-0.0009892876259982586,1.2184696791468346e-07,0.0,0.0,0.0,1.2184696791468346e-07,0.0,0.0,0.0,1.2184696791468346e-07,-0.30469587445259094,-1.039986491203307,9.721858024597168,8.999999999999999e-08,0.0,0.0,0.0,8.999999999999999e-08,0.0,0.0,0.0,8.999999999999999e-08
1676104292.6045492,6891,1676104292,601353728,base_link,0.05178998027864683,-0.018267480693676987,0.03943204355776191,-0.9977120412143151,1.0,0.0,0.0,0.0,1.0,0.0,0.0,0.0,1.0,-0.0007691901409998536,-0.00046251411549747,-0.0008311038836836814,1.2184696791468346e-07,0.0,0.0,0.0,1.2184696791468346e-07,0.0,0.0,0.0,1.2184696791468346e-07,-0.3215051591396332,-1.0290442705154408,9.764086723327637,8.999999999999999e-08,0.0,0.0,0.0,8.999999999999999e-08,0.0,0.0,0.0,8.999999999999999e-08
1676104292.6258826,6892,1676104292,621353728,base_link,0.05179154498039779,-0.01826956696267827,0.03943103203339765,-0.9977119569206181,1.0,0.0,0.0,0.0,1.0,0.0,0.0,0.0,1.0,-0.00013243118883110583,0.00043921242468059074,0.0011027329601347446,1.2184696791468346e-07,0.0,0.0,0.0,1.2184696791468346e-07,0.0,0.0,0.0,1.2184696791468346e-07,-0.3286149501800537,-1.0367993116378773,9.749341011047363,8.999999999999999e-08,0.0,0.0,0.0,8.999999999999999e-08,0.0,0.0,0.0,8.999999999999999e-08
1676104292.6451557,6893,1676104292,636353728,base_link,0.05178748176078354,-0.01827792916084064,0.03943402445964188,-0.9977119147737695,1.0,0.0,0.0,0.0,1.0,0.0,0.0,0.0,1.0,0.001020690891891718,-0.0004177037626504899,-0.0009581916965544224,1.2184696791468346e-07,0.0,0.0,0.0,1.2184696791468346e-07,0.0,0.0,0.0,1.2184696791468346e-07,-0.3346073031425476,-1.0183746814727772,9.747211456298828,8.999999999999999e-08,0.0,0.0,0.0,8.999999999999999e-08,0.0,0.0,0.0,8.999999999999999e-08
1676104292.6657386,6894,1676104292,657353728,base_link,0.05178593418118978,-0.01827582576968214,0.03943608965521892,-0.9977119569206181,1.0,0.0,0.0,0.0,1.0,0.0,0.0,0.0,1.0,-0.0005267340457066894,-0.0004573306068778037,0.0006655165925621987,1.2184696791468346e-07,0.0,0.0,0.0,1.2184696791468346e-07,0.0,0.0,0.0,1.2184696791468346e-07,-0.3086344003677368,-1.011500597000121,9.724857330322266,8.999999999999999e-08,0.0,0.0,0.0,8.999999999999999e-08,0.0,0.0,0.0,8.999999999999999e-08
1676104292.6870086,6895,1676104292,682353728,base_link,0.05179313470684006,-0.01827475234213413,0.03943056841806403,-0.9977117461863755,1.0,0.0,0.0,0.0,1.0,0.0,0.0,0.0,1.0,-0.0013092333683744073,-7.373141124844536e-05,0.001237005926668644,1.2184696791468346e-07,0.0,0.0,0.0,1.2184696791468346e-07,0.0,0.0,0.0,1.2184696791468346e-07,-0.3236125111579895,-1.0345995426177967,9.742596626281738,8.999999999999999e-08,0.0,0.0,0.0,8.999999999999999e-08,0.0,0.0,0.0,8.999999999999999e-08
1676104292.7043884,6896,1676104292,697356032,base_link,0.05179675275036692,-0.018274801074427718,0.039431200620791695,-0.99771161974583,1.0,0.0,0.0,0.0,1.0,0.0,0.0,0.0,1.0,0.0007470410782843828,0.0005722923669964077,0.0013809599913656712,1.2184696791468346e-07,0.0,0.0,0.0,1.2184696791468346e-07,0.0,0.0,0.0,1.2184696791468346e-07,-0.30937495827674866,-1.027840495109557,9.76944637298584,8.999999999999999e-08,0.0,0.0,0.0,8.999999999999999e-08,0.0,0.0,0.0,8.999999999999999e-08
1676104292.7244868,6897,1676104292,717356032,base_link,0.05178937968605554,-0.018275888989954907,0.03943128491448872,-0.9977119569206181,1.0,0.0,0.0,0.0,1.0,0.0,0.0,0.0,1.0,0.00010931215365417302,-0.00040564825758337975,0.00016226340085268026,1.2184696791468346e-07,0.0,0.0,0.0,1.2184696791468346e-07,0.0,0.0,0.0,1.2184696791468346e-07,-0.30428650975227356,-1.0393019914627064,9.756237030029297,8.999999999999999e-08,0.0,0.0,0.0,8.999999999999999e-08,0.0,0.0,0.0,8.999999999999999e-08
1676104292.7464635,6898,1676104292,742356032,base_link,0.051788665823808894,-0.018272446119267174,0.03943149564873127,-0.9977119990674665,1.0,0.0,0.0,0.0,1.0,0.0,0.0,0.0,1.0,0.0015259122010320425,-0.0006209147395566104,0.0019394177943468094,1.2184696791468346e-07,0.0,0.0,0.0,1.2184696791468346e-07,0.0,0.0,0.0,1.2184696791468346e-07,-0.33717668056488037,-1.0281512737274159,9.746502876281738,8.999999999999999e-08,0.0,0.0,0.0,8.999999999999999e-08,0.0,0.0,0.0,8.999999999999999e-08
1676104292.7639687,6899,1676104292,757356032,base_link,0.0517897392513569,-0.018272378947727357,0.03942593226472781,-0.9977121676548606,1.0,0.0,0.0,0.0,1.0,0.0,0.0,0.0,1.0,0.0010516492184251547,-0.0015867312904447317,-0.0005977628752589224,1.2184696791468346e-07,0.0,0.0,0.0,1.2184696791468346e-07,0.0,0.0,0.0,1.2184696791468346e-07,-0.34051841497421265,-1.0311813354492176,9.750511169433594,8.999999999999999e-08,0.0,0.0,0.0,8.999999999999999e-08,0.0,0.0,0.0,8.999999999999999e-08
1676104292.78594,6900,1676104292,782356032,base_link,0.05177764047165625,-0.01827205494382943,0.039429093278366134,-0.9977127155638912,1.0,0.0,0.0,0.0,1.0,0.0,0.0,0.0,1.0,0.002587055554613471,0.0005191192030906677,-0.00033603049814701086,1.2184696791468346e-07,0.0,0.0,0.0,1.2184696791468346e-07,0.0,0.0,0.0,1.2184696791468346e-07,-0.31821098923683167,-1.0229076147079457,9.748040199279785,8.999999999999999e-08,0.0,0.0,0.0,8.999999999999999e-08,0.0,0.0,0.0,8.999999999999999e-08
1676104292.8039064,6901,1676104292,797358336,base_link,0.051777956573020076,-0.018271633475344322,0.039427491698122714,-0.9977127155638912,1.0,0.0,0.0,0.0,1.0,0.0,0.0,0.0,1.0,0.0005818062927573919,0.00040355417877435684,2.4050939828157374e-05,1.2184696791468346e-07,0.0,0.0,0.0,1.2184696791468346e-07,0.0,0.0,0.0,1.2184696791468346e-07,-0.2973230481147766,-1.0374025106430043,9.741546630859375,8.999999999999999e-08,0.0,0.0,0.0,8.999999999999999e-08,0.0,0.0,0.0,8.999999999999999e-08
1676104292.8245904,6902,1676104292,817358336,base_link,0.051771213077258335,-0.01827398316214881,0.03942534220884865,-0.9977130948855278,1.0,0.0,0.0,0.0,1.0,0.0,0.0,0.0,1.0,-0.0009112310945056379,0.001716062892228365,-0.00012173689901828788,1.2184696791468346e-07,0.0,0.0,0.0,1.2184696791468346e-07,0.0,0.0,0.0,1.2184696791468346e-07,-0.30557143688201904,-1.0226273536682118,9.74128532409668,8.999999999999999e-08,0.0,0.0,0.0,8.999999999999999e-08,0.0,0.0,0.0,8.999999999999999e-08
1676104292.8451777,6903,1676104292,842358336,base_link,0.05177058614288674,-0.018271470156306348,0.03942892469097209,-0.9977130527386793,1.0,0.0,0.0,0.0,1.0,0.0,0.0,0.0,1.0,0.00022584261023439467,-0.0008297613821923735,-0.0013687093742191792,1.2184696791468346e-07,0.0,0.0,0.0,1.2184696791468346e-07,0.0,0.0,0.0,1.2184696791468346e-07,-0.32068732380867004,-1.0316364765167225,9.754866600036621,8.999999999999999e-08,0.0,0.0,0.0,8.999999999999999e-08,0.0,0.0,0.0,8.999999999999999e-08
1676104292.8643856,6904,1676104292,857358336,base_link,0.0517770016834835,-0.018278025308338802,0.03943098988654913,-0.9977125891233457,1.0,0.0,0.0,0.0,1.0,0.0,0.0,0.0,1.0,-0.0009583613136783242,0.002615797333419323,-0.0016321185976266863,1.2184696791468346e-07,0.0,0.0,0.0,1.2184696791468346e-07,0.0,0.0,0.0,1.2184696791468346e-07,-0.30954521894454956,-1.0325206518173207,9.761252403259277,8.999999999999999e-08,0.0,0.0,0.0,8.999999999999999e-08,0.0,0.0,0.0,8.999999999999999e-08
1676104292.8856847,6905,1676104292,877358336,base_link,0.05177821603955622,-0.01827919224920695,0.03943431948758146,-0.9977122940954062,1.0,0.0,0.0,0.0,1.0,0.0,0.0,0.0,1.0,-0.0006488070357590914,0.0006908464711159468,-8.323090150952347e-05,1.2184696791468346e-07,0.0,0.0,0.0,1.2184696791468346e-07,0.0,0.0,0.0,1.2184696791468346e-07,-0.32497942447662354,-1.0337209701538075,9.746160507202148,8.999999999999999e-08,0.0,0.0,0.0,8.999999999999999e-08,0.0,0.0,0.0,8.999999999999999e-08
1676104292.9063234,6906,1676104292,902359616,base_link,0.05177594142682565,-0.018278063503920267,0.039435499599339764,-0.9977124626828002,1.0,0.0,0.0,0.0,1.0,0.0,0.0,0.0,1.0,0.0020096185617148876,0.001509400550276041,-0.00022188993170857448,1.2184696791468346e-07,0.0,0.0,0.0,1.2184696791468346e-07,0.0,0.0,0.0,1.2184696791468346e-07,-0.3329073190689087,-1.0379121303558339,9.754922866821289,8.999999999999999e-08,0.0,0.0,0.0,8.999999999999999e-08,0.0,0.0,0.0,8.999999999999999e-08
1676104292.924179,6907,1676104292,917359616,base_link,0.051775065562630035,-0.018270236043898387,0.03943971428419087,-0.9977124626828001,1.0,0.0,0.0,0.0,1.0,0.0,0.0,0.0,1.0,0.001605090918019414,0.00038585951551795,-0.00035994034260511404,1.2184696791468346e-07,0.0,0.0,0.0,1.2184696791468346e-07,0.0,0.0,0.0,1.2184696791468346e-07,-0.32168999314308167,-1.0137813091278065,9.74295711517334,8.999999999999999e-08,0.0,0.0,0.0,8.999999999999999e-08,0.0,0.0,0.0,8.999999999999999e-08
1676104292.9448423,6908,1676104292,937359616,base_link,0.051772794901166506,-0.018274245262862986,0.03943899778776618,-0.9977125048296487,1.0,0.0,0.0,0.0,1.0,0.0,0.0,0.0,1.0,0.0007281772559508681,0.00016510440036654489,0.0013395696878433228,1.2184696791468346e-07,0.0,0.0,0.0,1.2184696791468346e-07,0.0,0.0,0.0,1.2184696791468346e-07,-0.32718250155448914,-1.0491855144500721,9.747983932495117,8.999999999999999e-08,0.0,0.0,0.0,8.999999999999999e-08,0.0,0.0,0.0,8.999999999999999e-08
1676104292.966468,6909,1676104292,962359616,base_link,0.051770827170176656,-0.01827582313550411,0.039437185473280206,-0.9977126312701943,1.0,0.0,0.0,0.0,1.0,0.0,0.0,0.0,1.0,0.0001555914932396263,-6.753136403858662e-05,-3.105634823441505e-05,1.2184696791468346e-07,0.0,0.0,0.0,1.2184696791468346e-07,0.0,0.0,0.0,1.2184696791468346e-07,-0.3314974904060364,-1.0194358825683583,9.766297340393066,8.999999999999999e-08,0.0,0.0,0.0,8.999999999999999e-08,0.0,0.0,0.0,8.999999999999999e-08
1676104292.9855385,6910,1676104292,977359616,base_link,0.051774536092845616,-0.01827749320437635,0.03943667971109807,-0.9977124626828002,1.0,0.0,0.0,0.0,1.0,0.0,0.0,0.0,1.0,0.0011355766328051686,-0.00017766025848686711,-0.0012636217288672924,1.2184696791468346e-07,0.0,0.0,0.0,1.2184696791468346e-07,0.0,0.0,0.0,1.2184696791468346e-07,-0.33753833174705505,-1.0495743751525868,9.746532440185547,8.999999999999999e-08,0.0,0.0,0.0,8.999999999999999e-08,0.0,0.0,0.0,8.999999999999999e-08
1676104293.0054317,6911,1676104292,997361920,base_link,0.05177672377770113,-0.0182707905383741,0.03943899778776618,-0.9977123362422546,1.0,0.0,0.0,0.0,1.0,0.0,0.0,0.0,1.0,0.00040065895882435143,0.00014924607239663593,-0.0005784579552710056,1.2184696791468346e-07,0.0,0.0,0.0,1.2184696791468346e-07,0.0,0.0,0.0,1.2184696791468346e-07,-0.33098840713500977,-1.045295238494872,9.756235122680664,8.999999999999999e-08,0.0,0.0,0.0,8.999999999999999e-08,0.0,0.0,0.0,8.999999999999999e-08
1676104293.0261753,6912,1676104293,22361920,base_link,0.05176964705841835,-0.018270891954228333,0.03943815485079596,-0.9977127577107398,1.0,0.0,0.0,0.0,1.0,0.0,0.0,0.0,1.0,0.00123318110127002,0.0012366867158561945,-0.0003982274793088438,1.2184696791468346e-07,0.0,0.0,0.0,1.2184696791468346e-07,0.0,0.0,0.0,1.2184696791468346e-07,-0.31928473711013794,-1.0434387922286976,9.730450630187988,8.999999999999999e-08,0.0,0.0,0.0,8.999999999999999e-08,0.0,0.0,0.0,8.999999999999999e-08
1676104293.0442777,6913,1676104293,37361920,base_link,0.051769669448931625,-0.018270216287563146,0.03943149564873127,-0.9977130948855278,1.0,0.0,0.0,0.0,1.0,0.0,0.0,0.0,1.0,0.0009616285096853971,1.0642688721419152e-06,0.0006289323791861534,1.2184696791468346e-07,0.0,0.0,0.0,1.2184696791468346e-07,0.0,0.0,0.0,1.2184696791468346e-07,-0.31598228216171265,-1.0449094772338856,9.74975872039795,8.999999999999999e-08,0.0,0.0,0.0,8.999999999999999e-08,0.0,0.0,0.0,8.999999999999999e-08
1676104293.065567,6914,1676104293,62361920,base_link,0.05176550876473019,-0.018269335155011463,0.039441948067161954,-0.9977128420044368,1.0,0.0,0.0,0.0,1.0,0.0,0.0,0.0,1.0,-7.004005601629615e-05,0.0012186937965452669,-0.0013009575195610525,1.2184696791468346e-07,0.0,0.0,0.0,1.2184696791468346e-07,0.0,0.0,0.0,1.2184696791468346e-07,-0.293643057346344,-1.0368119478225697,9.740365982055664,8.999999999999999e-08,0.0,0.0,0.0,8.999999999999999e-08,0.0,0.0,0.0,8.999999999999999e-08
1676104293.0865576,6915,1676104293,77361920,base_link,0.05176708795446033,-0.018280658169281715,0.03944291744467771,-0.9977125469764971,1.0,0.0,0.0,0.0,1.0,0.0,0.0,0.0,1.0,0.0013573933392763138,-0.0019106804393231867,0.0009804968722164633,1.2184696791468346e-07,0.0,0.0,0.0,1.2184696791468346e-07,0.0,0.0,0.0,1.2184696791468346e-07,-0.3439401090145111,-1.0230625867843617,9.747584342956543,8.999999999999999e-08,0.0,0.0,0.0,8.999999999999999e-08,0.0,0.0,0.0,8.999999999999999e-08
1676104293.1039631,6916,1676104293,97363712,base_link,0.051773139978488696,-0.018275796793723792,0.039442032360858977,-0.9977123362422546,1.0,0.0,0.0,0.0,1.0,0.0,0.0,0.0,1.0,-0.00013909587869420648,-0.0006895337719470264,-0.0006699776276946067,1.2184696791468346e-07,0.0,0.0,0.0,1.2184696791468346e-07,0.0,0.0,0.0,1.2184696791468346e-07,-0.3133334517478943,-1.0527303218841542,9.727737426757812,8.999999999999999e-08,0.0,0.0,0.0,8.999999999999999e-08,0.0,0.0,0.0,8.999999999999999e-08
1676104293.1252863,6917,1676104293,117363712,base_link,0.05177368261916327,-0.01827399501594995,0.039447469304316904,-0.9977121255080121,1.0,0.0,0.0,0.0,1.0,0.0,0.0,0.0,1.0,-0.0013492446159943938,0.0007617780938744545,0.00042650336399674405,1.2184696791468346e-07,0.0,0.0,0.0,1.2184696791468346e-07,0.0,0.0,0.0,1.2184696791468346e-07,-0.34312495589256287,-1.0307509899139393,9.74198055267334,8.999999999999999e-08,0.0,0.0,0.0,8.999999999999999e-08,0.0,0.0,0.0,8.999999999999999e-08
1676104293.1443715,6918,1676104293,137363712,base_link,0.05177222065035555,-0.018274919612439156,0.03944907088456027,-0.9977121255080121,1.0,0.0,0.0,0.0,1.0,0.0,0.0,0.0,1.0,0.000887460308149457,0.001501324586570263,0.000672128517180681,1.2184696791468346e-07,0.0,0.0,0.0,1.2184696791468346e-07,0.0,0.0,0.0,1.2184696791468346e-07,-0.3115430772304535,-1.0239622592926014,9.752372741699219,8.999999999999999e-08,0.0,0.0,0.0,8.999999999999999e-08,0.0,0.0,0.0,8.999999999999999e-08
1676104293.1653874,6919,1676104293,157363712,base_link,0.05176637145803564,-0.018281274566941192,0.039446584220498175,-0.9977124205359517,1.0,0.0,0.0,0.0,1.0,0.0,0.0,0.0,1.0,-0.00017750536790117621,-0.0006144921062514186,-0.00012799073010683052,1.2184696791468346e-07,0.0,0.0,0.0,1.2184696791468346e-07,0.0,0.0,0.0,1.2184696791468346e-07,-0.29895666241645813,-1.0502829551696766,9.758733749389648,8.999999999999999e-08,0.0,0.0,0.0,8.999999999999999e-08,0.0,0.0,0.0,8.999999999999999e-08
1676104293.188089,6920,1676104293,182363712,base_link,0.051759170932385364,-0.0182760944558414,0.039447511451165415,-0.9977128420044368,1.0,0.0,0.0,0.0,1.0,0.0,0.0,0.0,1.0,0.0019479494076222181,0.00015598535537719724,-0.000291209202259779,1.2184696791468346e-07,0.0,0.0,0.0,1.2184696791468346e-07,0.0,0.0,0.0,1.2184696791468346e-07,-0.3010235130786896,-1.0264856815338124,9.7422513961792,8.999999999999999e-08,0.0,0.0,0.0,8.999999999999999e-08,0.0,0.0,0.0,8.999999999999999e-08
1676104293.2085187,6921,1676104293,197367040,base_link,0.05176117949313471,-0.0182775630100942,0.03944759574486244,-0.9977127577107398,1.0,0.0,0.0,0.0,1.0,0.0,0.0,0.0,1.0,-0.0004744279431179166,-0.001447211718186736,0.0006810347549617293,1.2184696791468346e-07,0.0,0.0,0.0,1.2184696791468346e-07,0.0,0.0,0.0,1.2184696791468346e-07,-0.3181036114692688,-1.0240707397460926,9.758767127990723,8.999999999999999e-08,0.0,0.0,0.0,8.999999999999999e-08,0.0,0.0,0.0,8.999999999999999e-08
1676104293.2238789,6922,1676104293,217367040,base_link,0.051764681632828165,-0.018277063833357147,0.039453580597350955,-0.9977123362422546,1.0,0.0,0.0,0.0,1.0,0.0,0.0,0.0,1.0,0.0005277633899822831,0.0009064271580427884,-0.0006037261337041856,1.2184696791468346e-07,0.0,0.0,0.0,1.2184696791468346e-07,0.0,0.0,0.0,1.2184696791468346e-07,-0.3118484914302826,-1.0387487411499012,9.750661849975586,8.999999999999999e-08,0.0,0.0,0.0,8.999999999999999e-08,0.0,0.0,0.0,8.999999999999999e-08
1676104293.2451992,6923,1676104293,242367040,base_link,0.05176439845868973,-0.018284659485712222,0.03945075675850071,-0.9977122940954062,1.0,0.0,0.0,0.0,1.0,0.0,0.0,0.0,1.0,0.0006248645950108767,-6.421841681003576e-05,-0.0004277997650206089,1.2184696791468346e-07,0.0,0.0,0.0,1.2184696791468346e-07,0.0,0.0,0.0,1.2184696791468346e-07,-0.3171168267726898,-1.040426731109618,9.750523567199707,8.999999999999999e-08,0.0,0.0,0.0,8.999999999999999e-08,0.0,0.0,0.0,8.999999999999999e-08
1676104293.2646844,6924,1676104293,257367040,base_link,0.05176260985180604,-0.01827357749873189,0.039451304667531356,-0.9977125891233457,1.0,0.0,0.0,0.0,1.0,0.0,0.0,0.0,1.0,-0.0003444866742938757,-0.0005713785067200661,-3.82913276553147e-06,1.2184696791468346e-07,0.0,0.0,0.0,1.2184696791468346e-07,0.0,0.0,0.0,1.2184696791468346e-07,-0.3281707465648651,-1.0213267803192128,9.740727424621582,8.999999999999999e-08,0.0,0.0,0.0,8.999999999999999e-08,0.0,0.0,0.0,8.999999999999999e-08
1676104293.2865825,6925,1676104293,277367040,base_link,0.051773350712731245,-0.018275001271958143,0.03945008240892454,-0.9977120412143151,1.0,0.0,0.0,0.0,1.0,0.0,0.0,0.0,1.0,0.00025108098634518683,0.002291741780936718,-6.632553413510351e-05,1.2184696791468346e-07,0.0,0.0,0.0,1.2184696791468346e-07,0.0,0.0,0.0,1.2184696791468346e-07,-0.3200194835662842,-1.0387382507324208,9.737983703613281,8.999999999999999e-08,0.0,0.0,0.0,8.999999999999999e-08,0.0,0.0,0.0,8.999999999999999e-08
1676104293.3042345,6926,1676104293,297369600,base_link,0.051770546630216255,-0.018281988429187844,0.03944675280789222,-0.9977121676548606,1.0,0.0,0.0,0.0,1.0,0.0,0.0,0.0,1.0,-0.0019657330121845007,0.0004006919916719198,0.00019639870151877398,1.2184696791468346e-07,0.0,0.0,0.0,1.2184696791468346e-07,0.0,0.0,0.0,1.2184696791468346e-07,-0.3191758692264557,-1.0612794160842884,9.721577644348145,8.999999999999999e-08,0.0,0.0,0.0,8.999999999999999e-08,0.0,0.0,0.0,8.999999999999999e-08
1676104293.3259518,6927,1676104293,322369600,base_link,0.05177018969909293,-0.01828001147857488,0.03944721642322584,-0.9977122098017092,1.0,0.0,0.0,0.0,1.0,0.0,0.0,0.0,1.0,0.0007090221624821424,0.0005825161933898925,-0.0012797326780855656,1.2184696791468346e-07,0.0,0.0,0.0,1.2184696791468346e-07,0.0,0.0,0.0,1.2184696791468346e-07,-0.3185056746006012,-1.0281687974929798,9.749815940856934,8.999999999999999e-08,0.0,0.0,0.0,8.999999999999999e-08,0.0,0.0,0.0,8.999999999999999e-08
